time_tick,gyr_X_value,gyr_Y_value,gyr_Z_value
0.002899,-0.002727,-0.012578,0.002288
0.043057,0.036568,0.042018,0.008314
0.073176,0.046840,0.045929,-0.004994
0.103295,-0.010682,-0.007633,0.000336
0.143453,-0.027291,-0.023889,0.001271
0.173591,0.004343,0.005760,-0.001285
0.203710,-0.001543,0.005356,-0.001132
0.233828,-0.001901,-0.006807,0.000845
0.263947,-0.006793,-0.011846,0.000610
0.304105,-0.005845,-0.000421,-0.003853
0.334223,0.002648,0.000896,0.001871
0.364342,0.001462,-0.000570,0.003723
0.404500,-0.005251,0.000685,-0.005374
0.434619,-0.014778,-0.012933,0.003128
0.464737,0.004153,-0.004989,0.000013
0.504895,0.000949,-0.001235,-0.000984
0.535014,-0.028531,-0.024372,-0.000132
0.565133,-0.011509,-0.017133,0.004283
0.605291,0.004300,-0.003148,0.001687
0.635407,0.003908,-0.003180,0.008666
0.665526,-0.010853,-0.006615,0.006325
0.705684,0.008167,0.002415,-0.000841
0.735803,0.013744,0.004777,-0.008003
0.765921,-0.005609,-0.004455,-0.010846
0.806079,0.002990,0.004792,-0.006320
0.836198,-0.012001,-0.016669,-0.001342
0.866317,-0.007985,-0.011982,0.000058
0.906475,-0.004903,-0.002480,-0.002496
0.936593,-0.001344,0.000457,-0.002108
0.966712,-0.016436,-0.011619,0.001210
1.006870,-0.003056,-0.005441,0.001214
1.036989,-0.003492,-0.000845,-0.004337
1.067107,-0.005352,-0.002801,-0.001256
1.097226,0.001799,0.004860,-0.001837
1.137384,-0.021225,-0.015879,-0.001427
1.167502,0.000397,0.001095,-0.000075
1.197621,0.016452,0.014533,-0.005237
1.237779,-0.024913,-0.028505,-0.003441
1.267898,-0.011822,-0.010725,0.000100
1.298016,0.005141,0.007886,-0.002376
1.338174,-0.011640,-0.000272,-0.004804
1.368293,-0.005369,-0.000564,-0.007939
1.398412,-0.005299,-0.006928,-0.001681
1.438570,-0.001620,-0.005625,-0.002909
1.468688,-0.005462,-0.005463,-0.007378
1.498807,0.002077,0.004052,-0.007801
1.538965,-0.007200,-0.009827,-0.000608
1.569084,-0.004846,-0.010151,-0.002374
1.599202,0.007521,0.007326,-0.003395
1.639360,-0.000279,0.003814,0.001760
1.669479,-0.009053,-0.008303,0.002489
1.699598,-0.027435,-0.030068,0.000573
1.739756,0.009535,0.001950,-0.005087
1.769874,0.018736,0.015725,-0.011365
1.799993,0.000780,0.005855,-0.004333
1.830112,-0.020392,-0.015307,-0.002460
1.870270,-0.003760,-0.001501,-0.004628
1.900388,0.000337,-0.002372,-0.004970
1.930507,-0.005233,-0.007034,-0.007620
1.970665,-0.004531,0.000129,-0.006359
2.000784,-0.009195,-0.006235,-0.000785
2.030902,0.000243,-0.004548,-0.006022
2.071060,-0.007854,0.002594,-0.000904
2.101179,-0.025525,-0.020817,-0.002574
2.131297,0.000131,-0.000483,-0.003685
2.171456,0.002724,0.001669,-0.000063
2.201574,-0.013643,-0.009173,-0.004697
2.231693,-0.009008,0.000760,-0.003157
2.271851,-0.014388,-0.015776,0.000028
2.301969,-0.002600,-0.004924,-0.005327
2.332088,-0.003400,-0.006126,-0.004711
2.372246,-0.013974,-0.009292,0.000638
2.402365,-0.021985,-0.015716,-0.006243
2.432483,-0.012198,-0.017743,-0.005126
2.472642,0.008684,-0.005850,0.004930
2.502760,-0.019924,-0.018006,0.000998
2.532879,-0.049431,-0.048158,-0.003652
2.573037,0.005579,-0.006965,0.000807
2.603155,-0.022792,-0.025090,-0.000622
2.633274,-0.027984,-0.026239,-0.009901
2.673432,-0.027036,-0.019663,-0.011295
2.703551,-0.002850,0.000023,-0.006205
2.733669,0.002340,0.006370,-0.007817
2.763788,-0.032031,-0.014521,-0.014006
2.803946,-0.008090,-0.014715,-0.001355
2.834065,0.009358,0.007836,0.000283
2.864183,0.000062,0.003427,-0.008542
2.904341,-0.001054,-0.004060,-0.005567
2.934460,0.007498,0.012947,-0.005243
2.964578,0.005142,0.007229,-0.005368
3.004737,-0.012104,-0.009860,0.002829
3.034855,0.004048,0.001526,-0.002179
3.064974,0.008677,0.012166,-0.003635
3.105132,0.000185,-0.003392,-0.008020
3.135251,-0.013295,-0.007909,-0.001270
3.165369,-0.002730,-0.002010,-0.003781
3.205527,-0.001532,-0.010823,0.002053
3.235646,-0.002309,-0.005128,-0.003943
3.265764,-0.006894,0.005674,-0.009464
3.305923,-0.005985,-0.008239,0.000134
3.336041,0.007560,-0.000552,-0.001336
3.366160,-0.002154,0.000419,-0.002968
3.406318,0.007194,0.002771,-0.001175
3.436437,-0.006198,-0.004519,0.000212
3.466555,-0.010750,-0.004298,-0.002305
3.506713,0.006114,0.004499,-0.004738
3.536832,-0.001706,-0.008003,-0.000031
3.566950,-0.007469,-0.005938,-0.000659
3.597069,0.001594,0.001348,0.000405
3.637227,0.009860,0.007981,-0.002839
3.667346,-0.001454,-0.003548,-0.003282
3.697464,0.008339,-0.006469,0.000937
3.737623,0.006401,0.014282,0.000331
3.767741,0.010985,0.010557,-0.001283
3.797860,-0.007037,-0.003454,0.010009
3.838018,-0.002475,0.005869,0.001759
3.868136,-0.015772,-0.008153,0.005327
3.898255,-0.012577,-0.014337,0.011558
3.938413,-0.011274,-0.024845,0.013823
3.968532,-0.032097,-0.041958,0.013480
3.998650,-0.010849,-0.012129,0.003255
4.038789,0.061572,0.050812,-0.021095
4.068907,0.035037,0.018651,-0.023358
4.109065,0.045278,0.015711,-0.021627
4.139184,0.043561,0.029415,-0.022759
4.169303,0.045784,0.041439,-0.035956
4.209461,0.055132,0.060307,-0.024947
4.239579,-0.029715,-0.012531,0.020779
4.269698,0.085687,0.063565,-0.008122
4.309856,0.013110,0.004392,-0.006275
4.339975,-0.009516,-0.017002,0.002305
4.370093,-0.238322,-0.196038,0.040301
4.410251,-0.070935,-0.050486,0.025588
4.440370,0.001104,-0.013291,0.001517
4.470489,-0.008723,-0.013999,-0.010011
4.510647,-0.060430,-0.053566,0.010645
4.540765,-0.078888,-0.062047,0.012010
4.570884,-0.346292,-0.218723,0.050596
4.611042,-0.220239,-0.117503,0.041603
4.631157,-0.306297,-0.175292,0.039805
4.661275,-0.244042,-0.150331,0.010596
4.701433,-0.017722,-0.008355,0.006278
4.731552,-0.006182,0.005354,-0.003059
4.761671,-0.011768,0.001186,-0.001029
4.801829,-0.009604,-0.004187,-0.000440
4.831947,-0.008717,-0.006469,-0.001280
4.862066,-0.002044,-0.004456,-0.000836
4.902224,-0.007864,-0.003175,-0.000658
4.932343,-0.014845,-0.017830,-0.005045
4.962461,-0.017892,-0.011556,-0.003518
5.002619,0.010588,0.010299,-0.001905
5.032738,-0.002383,-0.003571,-0.001397
5.062857,-0.004680,-0.003053,-0.000043
5.103015,0.000753,0.002965,-0.000982
5.133133,-0.005605,-0.003634,-0.000205
5.163252,0.006273,0.001525,-0.001901
5.193370,0.002507,-0.001678,-0.000816
5.233529,-0.008464,-0.008873,0.000799
5.263647,0.008521,0.013378,-0.005168
5.293766,-0.002636,0.007842,0.001276
5.333924,-0.006982,-0.012721,0.002932
5.364043,0.002170,-0.000485,-0.002066
5.394161,0.006423,0.010774,-0.000926
5.434319,-0.004494,-0.004464,-0.001034
5.464438,0.002835,-0.001924,-0.002504
5.494556,-0.002664,-0.004694,-0.001041
5.534715,-0.007283,-0.003961,-0.003624
5.564833,0.007791,0.005634,-0.003744
5.594952,0.000364,-0.002902,-0.000444
5.635110,-0.000562,-0.002451,0.000092
5.665229,0.000917,0.002421,-0.005868
5.695347,0.011899,0.013710,-0.002858
5.735505,-0.007404,-0.003442,0.000033
5.765624,0.000753,-0.010056,0.001943
5.795743,0.008397,0.009668,-0.001916
5.835901,-0.001672,0.000780,0.000468
5.866019,-0.018948,-0.017189,-0.004136
5.896138,-0.003360,-0.003949,-0.007126
5.936296,-0.006175,-0.006897,0.003801
5.966415,-0.006641,-0.012077,0.003961
5.996533,-0.001714,-0.007489,-0.001773
6.026652,0.004781,0.008523,-0.004145
6.066810,0.000542,-0.004420,0.001224
6.096929,0.003632,-0.010766,0.004326
6.127047,0.010548,0.004027,-0.000227
6.167205,-0.005360,-0.005835,0.000293
6.197324,0.001215,0.004790,-0.001401
6.227443,-0.012958,-0.009984,-0.000020
6.267601,-0.016603,-0.023868,-0.000063
6.297719,0.007330,0.004931,-0.003687
6.327838,0.000058,-0.002166,-0.002969
6.367996,0.001966,0.001528,-0.000870
6.398115,0.001016,-0.001118,-0.003599
6.428233,-0.001292,0.002233,-0.000381
6.468391,-0.008774,-0.011529,-0.000176
6.498510,-0.002727,-0.004311,-0.001733
6.528629,-0.001756,0.001426,-0.003331
6.568787,-0.005659,-0.008771,0.001428
6.598905,0.002064,0.000584,-0.001981
6.629024,-0.008892,-0.002032,-0.003090
6.669182,-0.002726,-0.003906,-0.001687
6.699301,-0.002674,-0.008687,0.000331
6.729419,-0.000412,-0.000225,0.003129
6.769577,0.002800,0.004613,-0.006781
6.799696,-0.013022,-0.004874,-0.005614
6.829815,-0.018929,-0.020316,-0.001659
6.859933,-0.006294,-0.013465,0.000974
6.900091,-0.010443,-0.007537,-0.000953
6.930210,-0.017879,-0.013228,-0.003280
6.960329,-0.023015,-0.018278,-0.002736
7.000487,-0.002451,-0.000039,-0.003204
7.030605,-0.002018,-0.006875,0.000525
7.060724,-0.014994,-0.012458,-0.001871
7.100882,-0.004365,0.003545,0.000050
7.131001,-0.013662,-0.011012,0.001139
7.161119,-0.004388,-0.003291,-0.002935
7.201277,0.009270,0.015115,-0.004793
7.231396,-0.009738,-0.012240,0.002467
7.261515,0.002060,-0.003614,0.000628
7.301673,0.023273,0.029818,-0.006506
7.331791,0.005139,0.011187,-0.000811
7.361910,-0.007566,-0.007471,0.003272
7.402068,0.003472,-0.008578,-0.001194
7.432187,0.004293,0.006447,-0.002219
7.462305,-0.002463,0.006640,-0.004198
7.502463,0.006732,-0.003595,0.000499
7.532582,0.004509,-0.002560,0.000689
7.562701,0.003624,0.007185,-0.002589
7.602859,-0.003086,-0.001450,-0.004897
7.632980,-0.002068,-0.005720,0.000128
7.663099,0.004602,-0.002427,0.000175
7.693218,0.003239,0.001977,0.000895
7.733376,-0.009091,-0.012159,-0.001033
7.763494,-0.000389,-0.000018,-0.001753
7.793613,-0.005215,-0.004322,-0.006853
7.833771,0.000827,0.002939,-0.000012
7.863890,-0.006434,-0.008338,-0.000120
7.894008,-0.004680,-0.005465,-0.001565
7.934166,0.003847,0.013769,-0.002168
7.964285,-0.006744,-0.010496,0.001806
7.994404,-0.003326,-0.010198,0.000767
8.037037,0.007600,0.010989,-0.006354
8.077195,0.001459,-0.003564,0.001164
8.107314,0.001150,0.001418,-0.001552
8.137432,-0.001239,0.003009,-0.000915
8.177591,-0.007624,-0.009968,0.002400
8.207709,-0.010981,-0.009905,-0.001285
8.237828,-0.000561,0.001453,-0.004575
8.277986,-0.009081,-0.007500,0.000432
8.308105,-0.004367,-0.004050,0.001124
8.338223,0.001215,0.000652,-0.002839
8.378381,-0.003822,-0.000851,-0.003314
8.408500,0.005822,0.011633,-0.001572
8.438618,-0.010704,-0.012258,-0.002812
8.478777,0.002653,0.008866,-0.005793
8.508895,-0.002018,-0.004608,-0.000515
8.539014,-0.004964,-0.014689,0.002981
8.569132,-0.006604,-0.010086,-0.003886
8.609291,0.001775,0.003045,-0.003602
8.629394,0.004560,0.007814,-0.004826
8.669552,-0.006808,-0.007673,-0.002929
8.699671,-0.004975,-0.008461,0.000725
8.729790,0.004826,0.001475,-0.001711
8.769948,-0.001748,0.003116,-0.000107
8.800066,-0.003671,-0.000010,0.001494
8.830185,-0.005659,-0.004455,-0.000266
8.870343,-0.006644,-0.008332,-0.001126
8.900462,0.000402,-0.001745,-0.004576
8.930580,0.015515,0.014275,-0.004753
8.970739,-0.010630,-0.014581,0.002794
9.000857,-0.010603,-0.009042,0.002797
9.030976,-0.008793,-0.010897,-0.000545
9.071134,0.010400,0.006192,0.001012
9.101253,-0.003002,-0.005046,0.001909
9.131371,-0.003402,-0.005344,-0.002030
9.171529,-0.001514,0.001418,-0.003259
9.201648,-0.000602,-0.003678,-0.002706
9.231767,-0.001403,-0.002472,-0.003080
9.271925,-0.006589,-0.006641,-0.001932
9.302043,-0.000949,-0.003373,-0.002404
9.332162,0.000368,0.007699,-0.005194
9.362281,-0.013985,-0.013158,-0.005897
9.402439,-0.004020,-0.005790,-0.002769
9.432557,0.000501,-0.004543,-0.000411
9.462676,-0.010419,-0.009924,-0.000750
9.502834,-0.005013,-0.002503,-0.002342
9.532953,-0.011488,-0.008793,-0.002274
9.563071,-0.004435,-0.006056,-0.002983
9.603229,-0.000464,-0.007918,0.000018
9.633345,-0.002699,-0.002932,-0.001461
9.663464,0.007552,0.003455,-0.002491
9.703622,0.010859,0.010043,-0.006692
9.733740,-0.010501,-0.015593,0.000499
9.763859,-0.010418,-0.012715,-0.001065
9.804017,0.014941,0.018621,-0.005532
9.834136,-0.009694,-0.002167,-0.002462
9.864254,-0.008567,-0.007792,-0.004967
9.904413,-0.002531,0.003403,0.000889
9.934531,-0.011538,-0.010114,-0.000204
9.964650,-0.004722,-0.005645,-0.001267
10.004808,0.005863,0.008721,0.000375
10.034927,-0.000113,0.000794,-0.001205
10.065045,-0.007811,-0.008678,-0.001301
10.105203,0.017136,0.013009,-0.000593
10.135322,0.002500,0.010072,-0.001709
10.165441,-0.009845,-0.006510,-0.001550
10.205599,0.005864,0.006308,-0.003592
10.235717,0.002171,0.002908,-0.001342
10.265836,-0.009990,-0.012606,0.004969
10.295955,-0.008908,-0.009413,-0.003203
10.336113,-0.004443,-0.002035,-0.003457
10.366231,-0.003533,-0.005044,-0.000629
10.396350,0.008728,0.001361,-0.002233
10.436508,0.001584,0.000286,-0.000043
10.466627,0.007152,0.007465,-0.005714
10.496745,-0.003605,0.003914,-0.001433
10.536903,-0.006253,-0.014648,-0.001006
10.567022,0.003300,-0.002887,-0.008884
10.597141,-0.004199,0.006214,-0.007276
10.637299,-0.014529,-0.010307,-0.000396
10.667418,0.000461,-0.008530,-0.005794
10.697536,-0.000642,-0.000729,-0.005295
10.737694,-0.002196,0.001202,0.001065
10.767813,-0.012089,-0.011581,-0.000398
10.797932,-0.004437,-0.009949,-0.004151
10.838090,0.006876,0.011343,-0.003999
10.868208,0.000750,0.006642,-0.005152
10.898327,0.009202,0.006637,-0.002473
10.938485,-0.006433,-0.006606,-0.005465
10.968604,0.000898,0.008415,-0.000857
10.998722,0.009226,0.009771,-0.002658
11.038880,-0.014223,-0.022252,0.000635
11.068999,0.005914,-0.006993,-0.000079
11.099118,-0.000715,-0.000777,0.002677
11.129236,-0.016291,-0.012354,0.001000
11.169394,0.001110,0.005693,-0.005161
11.199513,-0.000626,-0.007422,0.001310
11.229632,0.003740,-0.009553,0.007844
11.269790,0.003009,0.003585,0.001923
11.299908,-0.005279,0.000777,-0.005545
11.330027,-0.001212,0.003114,-0.003763
11.370185,0.001309,-0.008442,0.000443
11.400304,0.005881,0.000569,-0.002144
11.430422,0.005930,0.008183,-0.001294
11.470581,-0.015951,-0.010671,0.003999
11.500699,-0.002262,-0.008857,-0.003511
11.530818,-0.003809,-0.005543,0.002590
11.570976,-0.018696,-0.018125,-0.000755
11.601095,-0.001433,0.004213,-0.008156
11.631216,-0.005380,0.003736,-0.007153
11.671374,0.000345,0.000565,-0.001637
11.701493,-0.012541,-0.014481,0.002307
11.731612,-0.009853,-0.013791,0.004268
11.771770,-0.006198,-0.000459,-0.000195
11.801888,-0.007437,-0.001337,-0.004667
11.832007,-0.020791,-0.010468,-0.003617
11.872165,-0.025024,-0.025909,-0.002991
11.902284,-0.025885,-0.027166,0.000897
11.932402,-0.018692,-0.010655,-0.002014
11.962521,0.004727,0.011586,-0.008748
12.002679,-0.015100,0.001198,-0.006826
12.036538,-0.012442,-0.003134,-0.001653
12.076696,-0.027822,-0.020861,-0.003978
12.106815,-0.029621,-0.019199,-0.003582
12.136933,-0.026663,-0.015209,-0.007011
12.177092,-0.039773,-0.029796,-0.001896
12.207210,-0.015159,-0.012981,-0.006253
12.237329,-0.019596,-0.010264,-0.002945
12.277487,-0.032654,-0.013468,-0.001292
12.307606,-0.055503,-0.024864,0.003439
12.337724,-0.046756,-0.028728,0.001366
12.377882,-0.031963,-0.021895,-0.000494
12.408001,-0.026394,-0.015810,-0.002136
12.438120,-0.040799,-0.030193,0.000193
12.478278,-0.038935,-0.018137,0.002645
12.508396,-0.010334,0.008588,0.001419
12.538515,-0.014339,-0.011378,0.002147
12.568634,-0.048741,-0.044138,0.004234
12.608792,-0.021829,-0.008136,0.002052
12.638917,-0.023555,-0.010991,0.000541
12.669036,-0.023448,-0.019708,0.005352
12.709194,-0.025335,-0.013099,-0.002324
12.739313,-0.019979,-0.010442,-0.009163
12.769431,-0.029713,-0.020410,-0.000064
12.799550,-0.016098,-0.018733,-0.001082
12.839708,0.006387,0.012668,-0.009878
12.869827,-0.014089,-0.013939,-0.007317
12.899945,-0.015848,-0.013712,-0.005132
12.940104,0.007013,0.012648,-0.005438
12.970222,-0.003959,-0.005339,0.002529
13.000341,-0.023206,-0.024085,-0.002189
13.040499,-0.014451,-0.000246,0.001952
13.070618,-0.012512,-0.003294,0.002816
13.100736,-0.011410,-0.010817,0.002199
13.140894,-0.007336,-0.003243,-0.000359
13.171013,0.002352,0.004794,-0.000562
13.201132,-0.004404,-0.009432,0.001246
13.241290,0.009351,0.012984,-0.002947
13.271408,0.017574,0.014376,-0.002374
13.301527,0.015474,0.003843,0.002550
13.341685,0.004338,0.004905,0.004632
13.371804,0.024205,0.022636,0.001509
13.401923,0.003383,0.002673,0.002207
13.442081,0.014979,0.007191,0.003487
13.472199,0.020626,0.018152,-0.004390
13.502318,0.006340,0.008657,-0.003160
13.542476,0.032593,0.013176,-0.000662
13.572595,0.024600,0.010184,0.002994
13.602713,0.025990,0.009625,0.000212
13.632831,0.022631,0.011602,-0.000083
13.672989,0.016238,0.008749,0.000029
13.703108,0.005154,-0.005766,0.006865
13.733226,0.024873,0.008868,0.003168
13.773385,0.004340,-0.001145,-0.001790
13.803503,0.005758,0.006165,-0.000027
13.833622,0.017137,0.018570,-0.001371
13.873780,0.010237,0.000137,0.000171
13.903899,0.016277,-0.001462,0.004547
13.934017,0.015664,0.008952,-0.000342
13.974176,0.015765,0.015428,0.000235
14.004294,0.007465,0.006776,0.001009
14.034413,0.017329,0.008994,-0.001092
14.074571,0.012885,0.000297,-0.001483
14.104690,0.007801,0.004852,0.001142
14.134808,0.001000,-0.007679,0.002288
14.174966,0.016206,0.013007,-0.004129
14.205085,0.017394,0.006255,0.000066
14.235204,0.007989,-0.002839,0.002572
14.275362,0.015554,0.003904,-0.000476
14.305481,0.027332,0.021411,-0.004573
14.335599,0.000771,-0.004758,-0.003691
14.375757,0.009754,0.004513,-0.001708
14.405876,0.008967,-0.001943,0.005948
14.435995,0.012499,-0.001398,0.001905
14.466113,0.006122,-0.000138,-0.003687
14.506271,-0.003180,-0.007356,-0.001672
14.536390,-0.006196,-0.007248,-0.003265
14.566509,0.014381,0.004804,-0.005688
14.606667,0.000924,-0.007266,0.001364
14.636787,-0.005629,-0.010530,0.002139
14.666905,0.010112,0.012810,0.000507
14.707063,0.006714,0.006116,0.001156
14.737182,0.000915,-0.008062,-0.000222
14.767301,-0.000960,-0.001703,-0.004736
14.807459,0.009242,0.004655,-0.003163
14.837577,0.001150,-0.003026,0.007067
14.867696,-0.010809,-0.013861,-0.001561
14.907854,0.002706,-0.002303,-0.004727
14.937973,0.001038,0.001725,-0.001563
14.968092,-0.002123,-0.003894,0.000040
15.008250,-0.003329,-0.005453,-0.000272
15.038368,0.008598,0.006634,-0.003343
15.068487,0.008733,0.009190,-0.006736
15.108645,-0.012770,-0.016933,-0.000250
15.138764,0.009142,0.006755,-0.002627
15.168882,0.001809,0.001760,0.001252
15.209041,0.004792,0.000824,-0.004497
15.239159,-0.010044,-0.013335,-0.000745
15.269278,0.000446,0.003754,-0.003936
15.299397,0.000194,0.004767,-0.001576
15.339555,0.000485,-0.007916,0.001030
15.369673,0.002589,0.000342,-0.005788
15.399792,-0.002118,0.001018,-0.001809
15.439950,0.002261,0.009050,-0.005093
15.470069,-0.003203,-0.006289,-0.002039
15.500187,-0.002375,-0.015428,0.002711
15.540346,-0.006554,-0.003182,-0.003341
15.570464,-0.001770,-0.001775,-0.001277
15.600583,-0.007175,-0.011100,-0.001110
15.640740,0.009707,0.005651,0.000258
15.670859,0.000932,-0.002246,-0.004251
15.700977,-0.000062,-0.004670,-0.002162
15.741136,-0.001887,0.001389,-0.003645
15.771254,0.002429,0.001202,-0.002892
15.801373,-0.006821,-0.009751,-0.004144
15.841531,-0.010391,-0.013336,0.000737
15.871650,0.007303,0.004516,-0.003799
15.901768,-0.005317,-0.005833,-0.001941
15.941927,-0.002853,-0.002464,-0.007917
15.972045,0.003305,0.002533,-0.004660
16.002164,-0.017068,-0.016512,0.003353
16.042312,-0.000527,-0.005930,-0.002903
16.072431,-0.001189,-0.003102,-0.003842
16.102549,0.001715,-0.004596,-0.001006
16.142708,-0.005369,-0.011278,-0.003961
16.172826,0.005409,0.006153,-0.001709
16.202945,-0.009685,-0.006600,-0.001364
16.243103,-0.000816,-0.000465,-0.000991
16.273222,-0.008646,-0.007730,-0.004301
16.303340,0.012720,0.009319,-0.003813
16.343499,-0.020106,-0.017680,0.002786
16.373617,-0.002734,-0.003464,-0.001051
16.403736,-0.023453,-0.011464,-0.004398
16.443894,-0.003753,-0.003359,-0.006828
16.474013,0.001252,-0.003382,-0.000786
16.504131,-0.008619,-0.013598,0.005843
16.544289,-0.012578,-0.007951,0.000720
16.574408,-0.005871,0.001013,-0.002435
16.604527,-0.007893,-0.007849,-0.007115
16.634676,-0.008083,-0.015302,-0.000016
16.664795,-0.008482,-0.014125,-0.000534
16.694913,-0.002941,0.004921,-0.005561
16.735071,-0.008394,0.006557,-0.008029
16.765190,-0.016649,-0.013733,0.000919
16.795309,-0.023166,-0.023810,0.003537
16.835467,-0.002943,-0.005024,-0.005029
16.865586,0.000358,0.001334,-0.007642
16.895704,-0.012232,-0.008309,-0.002053
16.935863,-0.003044,0.000492,-0.005034
16.965981,-0.011866,-0.010886,-0.002797
16.996100,-0.015047,-0.013119,0.001405
17.036258,-0.015203,-0.010525,-0.000725
17.066377,-0.001754,-0.000883,-0.003614
17.096495,-0.010934,-0.006486,-0.001918
17.136653,-0.005907,-0.002912,-0.002720
17.166772,0.000069,0.007976,-0.005667
17.196891,-0.017126,-0.017508,-0.000178
17.237049,0.003062,-0.004706,-0.000637
17.267168,0.006589,0.009843,-0.000426
17.297286,-0.008432,0.001984,-0.008658
17.337444,-0.011441,-0.005055,-0.002661
17.367563,0.005696,-0.003694,-0.002500
17.397682,-0.014142,-0.011956,0.003348
17.427800,-0.007834,-0.007888,-0.002559
17.467959,-0.015486,-0.009681,-0.006108
17.498077,-0.006936,-0.002217,-0.006370
17.528196,0.000374,-0.005052,-0.001418
17.568354,-0.015422,-0.016683,-0.000304
17.598473,-0.007376,-0.002802,-0.003100
17.628590,0.003543,0.014963,-0.003115
17.668749,-0.014205,-0.011807,-0.000774
17.698867,-0.024191,-0.027206,-0.002684
17.728986,0.002045,0.008670,-0.007186
17.769144,-0.017668,-0.008916,-0.001703
17.799263,-0.024832,-0.024488,0.000285
17.829381,0.004779,0.004419,-0.005387
17.869540,-0.012434,-0.004351,-0.005531
17.899658,-0.008378,-0.007955,0.004698
17.929777,-0.000414,-0.004803,-0.000349
17.969935,0.015857,0.018248,-0.004797
18.000054,0.005198,0.012985,-0.000048
18.030172,-0.008846,-0.012448,0.002659
18.070331,0.002094,-0.004787,0.000095
18.100449,0.006610,0.009615,0.000091
18.130568,0.019105,0.014471,-0.009985
18.170726,-0.001092,0.002610,-0.003946
18.200845,0.008200,0.007213,-0.001121
18.230963,0.003626,-0.002226,0.002906
18.271122,-0.003393,-0.003925,-0.000332
18.301240,0.005712,0.008392,-0.005719
18.331359,0.000118,0.001176,-0.001026
18.361478,0.011982,0.007033,0.000258
18.401636,0.008391,0.004596,-0.003026
18.431754,0.002069,0.002094,-0.001157
18.461873,0.004712,0.004267,-0.000920
18.502031,0.004364,0.008967,0.001078
18.532150,-0.000880,-0.006823,-0.002492
18.562269,0.003072,-0.001019,-0.001754
18.602427,0.004880,0.004273,-0.003229
18.632545,0.006713,0.006566,-0.001466
18.662664,0.002168,0.000044,-0.005984
18.702822,0.011433,0.010197,-0.003682
18.732941,-0.000040,-0.002619,0.002154
18.763060,-0.004546,-0.005498,-0.002628
18.803218,0.009581,0.009046,-0.000075
18.833336,0.001694,0.001124,0.001176
18.863455,-0.001165,-0.003065,0.002017
18.903613,0.009483,0.004807,0.000081
18.933732,0.006944,0.014407,0.000323
18.963851,0.001047,0.003225,-0.002981
19.004009,0.008414,0.005919,-0.004688
19.034128,0.010825,0.008495,-0.001424
19.064246,0.001255,-0.007645,0.003180
19.094365,-0.001979,-0.005524,0.002892
19.134523,0.003367,0.002477,-0.002182
19.164642,0.002692,0.002362,-0.001945
19.194760,0.012881,0.008031,-0.000140
19.234919,-0.000670,-0.005919,0.002300
19.265037,-0.013535,-0.011339,0.004550
19.295156,0.004702,-0.000079,-0.000114
19.335314,0.011849,0.011655,-0.003864
19.365433,0.003907,-0.006153,0.000798
19.395551,-0.005728,-0.012716,0.002787
19.435710,0.005403,0.008238,-0.000505
19.465828,0.002414,0.000846,-0.002381
19.495947,-0.002762,-0.005247,0.000324
19.536105,-0.006816,-0.004969,-0.003871
19.566224,0.001997,0.004618,-0.003131
19.596342,-0.000900,-0.001177,-0.002787
19.636501,-0.004507,-0.008556,0.001589
19.666619,0.001794,-0.000859,-0.004554
19.696738,-0.002424,-0.000059,-0.002305
19.736896,0.006512,-0.000125,0.001264
19.767015,-0.001322,-0.003760,-0.002299
19.797133,0.004240,-0.000179,-0.001764
19.837292,-0.013199,-0.007967,-0.002948
19.867410,-0.011161,-0.006936,-0.003675
19.897529,0.000036,0.002043,-0.003750
19.937687,-0.013869,-0.017512,0.004952
19.967806,0.006791,-0.000451,-0.003499
19.997924,0.000200,0.003692,-0.007987
20.036798,-0.004247,-0.005285,0.000491
20.076956,0.003968,0.003709,-0.002545
20.107075,0.002818,-0.001694,-0.001010
20.137194,-0.003564,-0.007001,-0.000050
20.177352,0.005672,0.005580,-0.001841
20.207470,-0.000295,0.001307,0.001385
20.237589,0.001833,-0.000223,-0.002535
20.277747,-0.006857,-0.005658,0.002427
20.307866,0.003038,0.005751,-0.004152
20.337985,0.002307,0.001169,-0.002071
20.378143,0.001786,0.000187,-0.005818
20.408261,0.007281,0.004087,0.001122
20.438380,-0.006675,-0.010217,0.002617
20.478538,-0.002994,-0.004180,-0.003042
20.508657,-0.005721,-0.003985,-0.002350
20.538776,0.001279,0.005118,-0.002855
20.568894,-0.008476,-0.006323,-0.002106
20.609053,0.008456,0.003995,-0.006298
20.629161,0.003079,0.007506,-0.003680
20.669320,-0.006915,-0.005731,0.000219
20.699438,-0.008471,0.002491,-0.003859
20.729557,-0.002107,-0.005243,0.000454
20.769715,-0.010118,-0.012341,-0.002603
20.799834,0.016686,0.015315,-0.005396
20.829952,-0.006170,-0.005364,-0.001164
20.870111,-0.009493,-0.004287,-0.006180
20.900229,0.005733,0.005361,-0.005340
20.930348,-0.002838,-0.008962,0.000690
20.970506,-0.003537,-0.005918,0.000925
21.000625,-0.009276,-0.005750,-0.000703
21.030743,0.001842,0.006670,-0.001784
21.070902,-0.002017,-0.004119,0.002013
21.101020,0.003549,-0.005055,-0.000218
21.131139,-0.005796,-0.002922,-0.003999
21.161258,0.006816,0.008807,-0.002791
21.201416,-0.006751,-0.007291,0.000633
21.231535,-0.007344,-0.010451,-0.000587
21.261653,-0.002741,-0.000330,-0.001875
21.301811,-0.001219,-0.002547,0.000319
21.331930,0.003048,0.000386,-0.001151
21.362049,0.006107,0.008500,-0.004087
21.402207,-0.002945,-0.000176,-0.002929
21.432326,-0.006116,-0.010912,0.000765
21.462444,-0.004620,-0.007249,-0.000857
21.502603,-0.000844,0.001561,-0.005731
21.532721,-0.006553,-0.004881,-0.000682
21.562840,-0.007101,-0.006017,0.001870
21.602998,0.003298,0.005394,-0.001758
21.633121,-0.008538,-0.006878,-0.003450
21.663239,0.000777,0.000995,-0.000436
21.703398,-0.004230,-0.002250,-0.000307
21.733516,0.002201,0.002535,-0.002197
21.763635,-0.022621,-0.025922,0.004021
21.803793,-0.027129,-0.022030,-0.001630
21.833912,0.004764,0.015118,-0.006267
21.864031,0.036851,0.026171,-0.007360
21.904189,-0.004333,-0.006255,0.003261
21.934308,-0.020081,-0.025121,0.005905
21.964426,0.006898,0.009213,-0.010024
21.994545,-0.003080,0.009725,-0.006885
22.034703,0.001304,-0.006256,-0.002137
22.064822,-0.002217,-0.004149,0.002291
22.094941,-0.001459,-0.000848,-0.000773
22.135099,0.004119,0.011726,-0.004581
22.165218,-0.001163,0.003131,-0.000197
22.195336,-0.013956,-0.016111,-0.003410
22.235494,0.005029,0.005205,-0.005397
22.265613,0.003688,0.001665,0.000212
22.295732,0.003468,0.002317,0.000778
22.335890,-0.004214,-0.000207,-0.003000
22.366009,0.005057,0.008490,-0.000034
22.396127,-0.005301,-0.006167,-0.004189
22.436286,-0.008053,-0.012248,-0.002032
22.466404,0.002281,0.003034,0.000370
22.496523,-0.000252,0.002246,-0.003128
22.536681,-0.008162,-0.007429,-0.004062
22.566800,0.007867,0.007399,-0.004792
22.596919,0.004784,0.006392,-0.002541
22.637077,-0.002330,-0.006972,0.002082
22.667196,0.001189,-0.003585,-0.000922
22.697314,0.009716,0.013418,-0.003689
22.737472,-0.012139,-0.007262,-0.003081
22.767591,-0.012118,-0.009948,-0.001082
22.797710,0.000603,-0.000881,-0.004380
22.827829,0.001662,-0.003007,-0.001754
22.867987,-0.002913,-0.003491,-0.000326
22.898106,-0.005818,-0.000277,-0.008640
22.928224,0.002997,0.004387,-0.006246
22.968382,-0.002181,-0.009125,-0.000015
22.998501,-0.001885,-0.006709,-0.000871
23.028620,0.003737,0.000727,-0.003257
23.068778,0.007922,0.015911,-0.001822
23.098897,-0.002336,0.000183,-0.000584
23.129015,-0.011193,-0.008743,-0.000376
23.169174,-0.001996,-0.001391,-0.003637
23.199292,0.000116,0.001893,-0.002729
23.229411,-0.004701,-0.003776,-0.002793
23.269569,-0.004561,-0.002463,-0.001288
23.299688,-0.001023,0.001607,-0.002345
23.329807,-0.004072,-0.008860,0.001410
23.369965,0.009665,0.014452,-0.001861
23.400084,-0.002341,-0.002741,-0.001321
23.430202,-0.008720,-0.006296,-0.002748
23.470361,-0.000738,-0.005805,-0.003481
23.500479,0.006178,0.007655,-0.000163
23.530598,0.002440,0.005195,-0.001634
23.570756,-0.004109,-0.009908,0.001967
23.600875,0.000102,-0.001067,-0.001300
23.630994,-0.001787,0.002638,-0.000120
23.661111,-0.009340,-0.006737,-0.005528
23.701270,0.001221,0.003396,-0.005754
23.731388,-0.001405,-0.008030,0.004993
23.761507,-0.015668,-0.016336,0.002965
23.801665,-0.006321,-0.004873,-0.004108
23.831784,-0.009462,-0.005418,0.002467
23.861903,0.005789,-0.001289,-0.002334
23.902061,0.008593,0.005359,-0.004421
23.932180,-0.013214,-0.012551,0.001553
23.962298,-0.006631,-0.003503,-0.003928
24.002457,0.002935,0.006671,0.001021
24.032575,-0.007945,-0.007052,0.000016
24.062694,-0.022410,-0.020090,-0.001199
24.102852,0.000557,0.005761,0.000433
24.132971,-0.004086,-0.004576,-0.000685
24.163090,0.003217,0.005447,-0.003350
24.203248,0.003682,0.001767,-0.002535
24.233367,-0.005179,-0.003563,-0.000529
24.263485,-0.012102,-0.011486,0.003595
24.303644,-0.005052,-0.007498,0.000302
24.333762,0.008909,0.007338,-0.003639
24.363881,-0.007675,-0.001943,-0.002523
24.404039,0.000470,0.005248,-0.002685
24.434158,-0.015721,-0.013216,0.001028
24.464277,-0.000748,-0.006254,0.002275
24.504435,0.002070,0.004881,-0.005595
24.534554,-0.014570,-0.014778,-0.004417
24.564672,-0.011935,-0.002820,-0.004269
24.594791,0.005285,0.008004,-0.005911
24.634949,-0.010930,-0.017545,0.006033
24.665066,-0.013164,-0.013851,0.001068
24.695185,0.008674,0.009608,-0.002118
24.735343,-0.006297,-0.004235,-0.001595
24.765462,0.004570,-0.000491,-0.005379
24.795580,0.001027,-0.000058,-0.001802
24.835739,-0.007544,-0.009296,0.001081
24.865857,0.011855,0.018573,-0.003086
24.895976,0.001299,0.004410,0.002773
24.936134,-0.021486,-0.016298,0.001765
24.966253,0.011428,0.013143,-0.009238
24.996372,0.003221,0.006819,-0.003025
25.036530,0.005312,-0.002144,-0.001493
25.066649,-0.008589,-0.001594,-0.004945
25.096767,-0.003271,-0.002583,-0.003497
25.136926,-0.007436,-0.008671,-0.003299
25.167044,-0.003684,-0.002419,-0.001016
25.197163,-0.006281,-0.007998,-0.000444
25.237321,0.005997,0.010610,-0.002609
25.267440,0.001669,-0.006445,0.000821
25.297559,0.004063,0.002031,-0.002705
25.337717,0.002435,0.000463,-0.004449
25.367836,-0.005554,-0.000911,-0.002060
25.397954,0.011391,0.009352,-0.001098
25.428073,-0.009598,-0.012542,0.005208
25.468231,-0.006887,-0.009774,-0.002626
25.498350,0.000655,0.006650,-0.004250
25.528469,0.000823,0.007539,-0.004263
25.568627,-0.000296,-0.009109,-0.000336
25.598746,-0.003303,-0.000677,-0.003322
25.628864,0.001608,0.001822,-0.003336
25.669026,-0.007059,-0.004077,-0.000746
25.699144,0.002910,0.001773,0.000014
25.729263,-0.001227,-0.002002,-0.003365
25.769421,-0.009176,-0.010035,-0.001370
25.799540,0.005179,0.001050,-0.004737
25.829659,-0.003729,-0.002581,-0.002737
25.869817,0.007906,0.010044,-0.003412
25.899936,-0.012347,-0.014908,-0.000896
25.930054,-0.016099,-0.019692,-0.000156
25.970213,0.005476,0.004680,-0.002172
26.000331,-0.001664,-0.005900,-0.000356
26.030450,-0.004454,-0.005120,-0.001172
26.070608,0.002389,-0.000893,-0.007345
26.100727,-0.003002,-0.002138,-0.003429
26.130846,0.002059,0.001413,-0.004303
26.171004,-0.007677,-0.011854,0.005728
26.201123,-0.012112,-0.014462,0.001814
26.231241,-0.007874,-0.003897,-0.003098
26.261360,0.000088,0.001222,-0.004240
26.301518,-0.000926,-0.007346,-0.004867
26.331637,0.002166,-0.005351,-0.002246
26.361756,-0.000543,-0.003440,0.002897
26.401914,-0.002931,-0.000632,-0.000646
26.432033,-0.003866,-0.002351,0.000495
26.462151,0.005501,0.000618,0.002065
26.502310,-0.011605,-0.014729,0.000193
26.532428,0.000461,-0.000364,-0.002930
26.562547,-0.002299,-0.002423,-0.004399
26.602705,-0.002521,0.003353,-0.007215
26.632824,-0.001468,0.002156,-0.002982
26.662940,-0.010743,-0.011889,-0.002248
26.703098,-0.005459,-0.004147,0.000213
26.733216,-0.003164,-0.006403,-0.001128
26.763335,0.005780,-0.000657,-0.000906
26.803494,0.001613,0.008574,-0.003201
26.833612,-0.010197,-0.011076,-0.003674
26.863731,0.005720,0.006297,-0.004357
26.903889,-0.003414,-0.004320,0.001604
26.934008,-0.009172,-0.017057,0.005546
26.964127,-0.002056,0.003489,-0.001428
27.004285,-0.008219,-0.000854,-0.005370
27.034404,-0.002018,-0.006651,-0.003430
27.064522,0.008936,0.002106,-0.002458
27.094641,0.006775,0.002487,-0.001181
27.134799,-0.008487,-0.003008,-0.002460
27.164918,0.012078,0.017429,-0.000585
27.195037,-0.005309,-0.002173,-0.001494
27.235195,0.002112,-0.004372,-0.005619
27.265314,-0.007417,-0.003219,-0.001480
27.295432,-0.006014,-0.004548,-0.005363
27.335591,0.003749,0.007229,-0.007091
27.365709,0.003594,0.007484,-0.006608
27.395828,-0.005373,-0.007189,-0.001060
27.435986,-0.005116,-0.009023,-0.001337
27.466105,0.009772,0.006108,-0.001224
27.496224,-0.003774,-0.002057,-0.000491
27.536382,0.002672,0.003919,-0.005682
27.566501,0.003365,0.003206,-0.002707
27.596619,-0.002791,-0.002170,-0.000866
27.636778,0.001929,0.006352,-0.004240
27.666899,-0.007620,-0.008041,-0.001240
27.697018,0.002448,0.000387,-0.003379
27.737176,0.001031,-0.002068,0.002419
27.767295,-0.012260,-0.020553,-0.000367
27.797414,-0.011473,-0.005408,-0.003822
27.837572,0.008040,0.010086,-0.006844
27.867691,-0.003496,-0.003679,-0.003014
27.897809,0.001276,-0.003391,-0.001832
27.927928,0.001385,0.000506,0.002993
27.968086,-0.000564,0.005011,-0.003750
27.998205,0.003510,0.006609,0.001093
28.028324,-0.006039,-0.008049,0.002545
28.068482,-0.002866,-0.003143,0.000392
28.098601,0.001996,0.004836,-0.004701
28.128719,0.000665,0.001871,-0.004348
28.168878,0.000366,0.003763,-0.002872
28.198996,0.001050,0.003499,0.001362
28.229115,-0.006420,-0.008685,0.000622
28.269273,-0.005849,-0.005307,-0.003331
28.299392,0.003671,0.002185,-0.002291
28.329511,0.002532,0.000289,-0.003704
28.369669,-0.001947,0.000216,-0.003568
28.399788,-0.006979,-0.005066,-0.002786
28.429906,0.005601,0.004570,-0.003348
28.470065,0.002286,0.004484,-0.001671
28.500183,0.007286,0.002195,-0.005437
28.530302,-0.002554,-0.002265,-0.000662
28.570460,-0.016419,-0.015813,-0.003093
28.600579,0.002661,0.007573,-0.006198
28.630698,0.004657,0.002597,0.001440
28.670853,-0.004732,-0.011876,0.000643
28.700972,-0.002552,-0.000954,-0.002061
28.731090,-0.010995,-0.006890,-0.002159
28.761209,-0.002623,-0.001460,-0.002107
28.801367,-0.001364,-0.006299,-0.000374
28.831486,0.002716,-0.005113,0.000262
28.861605,0.006226,0.011879,-0.001825
28.901763,-0.004345,-0.000578,0.003205
28.931882,-0.007634,-0.007534,-0.000114
28.962000,-0.005896,-0.006168,-0.003687
29.002159,0.003202,0.004813,-0.004338
29.032277,-0.002329,-0.000606,-0.002074
29.062396,-0.001724,-0.004548,0.000959
29.102554,0.000544,0.005827,-0.001037
29.132673,-0.004326,-0.005951,0.002184
29.162792,-0.004604,-0.008534,0.001305
29.202950,-0.002487,-0.001887,-0.001327
29.233069,-0.006255,-0.003865,0.000066
29.263188,-0.004602,-0.003439,-0.003425
29.303346,0.001859,0.004580,0.000255
29.333464,-0.007842,-0.008417,-0.002876
29.363583,0.008049,-0.002292,-0.000931
29.403741,-0.005878,0.000999,-0.001232
29.433860,-0.004760,0.003319,-0.005821
29.463979,-0.009315,-0.006367,-0.004821
29.504137,0.005173,0.005039,-0.001477
29.534256,-0.006894,-0.013640,0.005810
29.564374,-0.014289,-0.019200,-0.002340
29.594493,0.000426,0.004130,-0.006535
29.634652,-0.005926,0.003985,-0.007364
29.664769,-0.005332,-0.011636,0.001612
29.694888,0.012123,0.005151,-0.002286
29.735046,0.000108,-0.002054,0.001847
29.765165,-0.004260,0.001643,-0.000150
29.795284,0.003344,0.010242,-0.002355
29.835442,-0.006162,-0.011574,-0.001027
29.865561,-0.003380,-0.009689,-0.001744
29.895679,0.001468,-0.000889,-0.006503
29.935838,0.005075,0.001333,-0.006913
29.965956,-0.001062,0.004372,-0.001675
29.996075,-0.008950,-0.008045,0.000640
30.036233,0.002763,-0.003354,-0.000917
30.066352,-0.002188,0.000493,-0.002511
30.096471,-0.007069,-0.004931,-0.005757
30.136629,0.001553,-0.000684,-0.003172
30.166748,-0.002968,-0.004107,-0.001005
30.196866,0.004727,0.005729,-0.001507
30.237025,-0.011001,-0.009647,-0.003178
30.267143,0.005021,0.003374,-0.000332
30.297262,0.009944,0.005698,-0.003586
30.337420,-0.001806,-0.001141,0.002872
30.367539,-0.016911,-0.015161,-0.002136
30.397658,-0.005832,-0.000456,-0.010032
30.437816,0.006056,0.005440,-0.005437
30.467935,0.002033,-0.003304,-0.000857
30.498053,0.001381,-0.005721,-0.004501
30.528172,-0.000543,-0.002786,0.003215
30.568330,-0.006069,0.002680,-0.002556
30.598449,-0.006481,-0.005923,0.000380
30.628568,-0.000823,0.000583,-0.005644
30.668727,0.003048,0.001905,-0.005377
30.698846,-0.004420,-0.008048,0.002316
30.728964,-0.001453,0.000469,-0.002199
30.769123,0.004599,0.007677,-0.004626
30.799241,-0.012273,-0.006119,-0.000073
30.829360,0.001530,0.000207,0.000362
30.869518,0.005362,0.000349,0.001494
30.899637,-0.003935,-0.005287,-0.001505
30.929756,-0.002967,0.000736,-0.002698
30.969914,-0.005081,0.000973,-0.006341
31.000033,0.013118,0.013459,-0.003143
31.030151,-0.003479,-0.005778,-0.000429
31.070310,-0.004594,-0.009403,-0.000285
31.100428,-0.011168,-0.006968,-0.003290
31.130547,-0.003389,0.004720,-0.003636
31.170705,-0.001460,-0.005596,-0.003209
31.200824,0.003696,-0.002615,-0.002618
31.230943,0.006315,0.003082,-0.001626
31.271101,-0.001555,0.001715,-0.004343
31.301220,0.000075,0.004108,-0.003299
31.331338,-0.002236,-0.002933,-0.001249
31.361457,-0.005703,-0.010236,-0.001149
31.401615,0.002192,-0.000561,-0.004037
31.431734,-0.007504,-0.005418,-0.002429
31.461853,0.004978,0.008123,-0.003158
31.502011,-0.006783,-0.006212,-0.001980
31.532130,-0.000741,-0.008747,-0.000375
31.562248,0.000418,0.001410,0.000294
31.602407,0.001760,-0.008367,-0.001954
31.632525,-0.003312,-0.009828,-0.002389
31.662643,0.003847,0.010147,-0.003367
31.702801,-0.010257,-0.010300,-0.005723
31.732920,-0.001499,0.003818,-0.004307
31.763039,0.003431,-0.002046,-0.001076
31.803197,-0.011656,-0.019294,0.003763
31.833316,-0.002876,-0.001270,-0.002373
31.863435,-0.010839,-0.002875,-0.003430
31.903593,0.003271,0.001952,-0.003208
31.933711,0.001743,-0.004331,-0.003270
31.963830,-0.004630,-0.007350,-0.003644
32.003989,0.000856,0.008835,-0.000612
32.034107,0.004814,0.006267,0.001305
32.064226,-0.001950,-0.002124,-0.004424
32.094345,-0.005481,-0.011992,-0.001376
32.134503,-0.009484,-0.001755,-0.003165
32.164622,0.001295,0.001539,-0.004056
32.194740,0.001888,-0.000205,-0.007483
32.234899,-0.008854,-0.005544,-0.005798
32.265017,-0.010494,-0.010599,-0.003801
32.295136,-0.006530,-0.008725,-0.000944
32.335294,-0.003898,-0.007625,-0.001082
32.365413,-0.005678,-0.007956,-0.001224
32.395532,-0.004948,-0.002989,-0.003283
32.435690,-0.008723,-0.005750,-0.002447
32.465809,0.005919,0.004480,-0.003922
32.495927,0.001372,-0.001492,0.000089
32.536086,-0.007887,-0.013415,0.000644
32.566204,-0.000528,0.006177,-0.005044
32.596323,-0.006421,-0.003668,-0.006777
32.636481,-0.008663,-0.009424,-0.001241
32.666604,-0.006734,-0.012996,-0.000096
32.696723,-0.008178,-0.005230,-0.001504
32.736881,0.000067,-0.003320,-0.004330
32.767000,-0.007950,-0.005287,-0.005370
32.797118,-0.009660,-0.009980,-0.001305
32.837277,0.005928,0.000853,-0.003004
32.867395,-0.004920,-0.004759,-0.003684
32.897514,-0.006137,-0.000339,0.000996
32.937672,-0.003095,-0.001535,0.000431
32.967791,0.003527,0.001983,-0.002889
32.997910,-0.012667,-0.012336,-0.001775
33.028028,-0.013859,-0.013126,-0.005396
33.068187,-0.004872,-0.004533,-0.007390
33.098305,-0.001056,0.004481,-0.002780
33.128424,-0.009288,-0.008474,-0.002688
33.168582,-0.006717,-0.006346,0.001622
33.198701,0.001624,0.005156,-0.004892
33.228820,0.001817,0.000212,0.000526
33.268978,-0.002988,-0.002421,-0.000436
33.299097,-0.000178,0.003622,0.000267
33.329216,-0.000888,0.002730,-0.004020
33.369374,-0.000847,0.000372,-0.003003
33.399492,-0.003873,-0.007808,-0.004879
33.429611,0.003926,0.011260,-0.003170
33.469769,-0.002150,-0.003547,0.002625
33.499888,-0.006379,-0.011241,-0.000172
33.530007,-0.003985,-0.000412,-0.004225
33.570165,0.007627,0.010256,-0.004295
33.600284,-0.010644,-0.016579,0.000524
33.630403,0.005876,-0.001494,-0.002504
33.670557,-0.002950,0.000378,-0.004326
33.700676,0.001804,0.004695,-0.002042
33.730794,-0.005906,-0.003378,0.004276
33.770952,-0.003633,-0.003777,0.002404
33.801071,-0.002904,-0.005140,-0.001091
33.831190,0.004337,0.001446,-0.004895
33.861309,0.009931,0.012240,-0.001779
33.901467,-0.001622,-0.001912,-0.000244
33.931586,0.000831,0.001769,-0.004566
33.961704,-0.004294,-0.000636,-0.004868
34.001863,-0.007273,-0.008000,-0.000552
34.031981,0.003426,0.006476,-0.004120
34.062100,-0.009588,-0.009722,-0.002764
34.102258,0.007770,0.006078,-0.004777
34.132377,0.000126,0.001791,-0.002576
34.162496,-0.001501,-0.003048,-0.001266
34.202654,0.006204,0.009816,0.002487
34.232773,-0.007619,-0.003496,-0.005321
34.262891,-0.012226,-0.009868,-0.003024
34.303050,0.002810,0.005144,-0.005328
34.333168,-0.001406,-0.003712,0.002484
34.363287,-0.001203,-0.005599,-0.003215
34.403445,-0.007511,-0.005840,-0.003127
34.433564,0.003338,0.006181,-0.004001
34.463683,-0.003278,-0.004313,-0.003735
34.503841,0.006755,0.002603,-0.001870
34.533960,-0.002082,0.000781,-0.001365
34.564078,-0.004186,-0.001874,-0.002594
34.604237,0.005275,0.006146,0.001073
34.634355,-0.001574,0.001029,-0.000811
34.664474,-0.008756,-0.010873,-0.001039
34.694593,-0.003618,0.001393,-0.000762
34.734751,0.003871,0.001276,-0.003960
34.764870,0.005213,0.002629,-0.005581
34.794989,-0.006095,-0.006953,-0.003313
34.835147,-0.006462,-0.005410,-0.001865
34.865266,0.001497,-0.000353,-0.000640
34.895384,0.003436,0.000567,-0.001557
34.935542,-0.001036,0.001739,-0.001943
34.965661,0.001412,0.000591,-0.005039
34.995780,0.001825,0.001738,-0.003407
35.035938,0.006199,0.006292,-0.001713
35.066057,-0.002598,-0.003239,-0.002768
35.096176,-0.001395,-0.004095,-0.005626
35.136334,-0.012705,-0.012790,0.000311
35.166453,0.008349,0.005025,-0.002029
35.196571,-0.001781,-0.003026,-0.003460
35.236730,0.006866,-0.002160,-0.001634
35.266848,-0.002496,0.003659,-0.000440
35.296967,-0.010417,-0.004038,-0.001047
35.337125,0.000124,-0.003330,-0.003893
35.367244,-0.006973,-0.013533,0.001542
35.397363,-0.003915,-0.010893,-0.002068
35.437521,-0.005543,0.000595,-0.004821
35.467640,-0.003898,0.000289,-0.004951
35.497758,0.000769,-0.001447,-0.001707
35.527877,0.002384,-0.006190,-0.000139
35.568035,0.006125,0.000838,-0.001560
35.598154,0.005153,0.007139,-0.001872
35.628273,-0.001867,0.004470,0.000254
35.668431,-0.000008,0.000017,0.000271
35.698550,-0.001528,-0.004850,0.000831
35.728669,-0.007338,-0.009625,-0.002015
35.768827,0.001510,0.001075,0.000784
35.798946,-0.003244,-0.002177,-0.001941
35.829064,-0.002012,-0.003666,-0.003490
35.869223,-0.004054,-0.009643,0.001300
35.899341,-0.014282,-0.015405,0.000766
35.929460,-0.001847,-0.002198,-0.000831
35.969618,-0.005318,-0.003932,0.001201
35.999737,-0.011575,-0.015847,-0.002601
36.029856,-0.001536,-0.000297,-0.006701
36.070014,-0.004708,0.000958,-0.001580
36.100133,-0.009278,-0.009450,-0.001478
36.130251,-0.011521,-0.015338,0.000934
36.170410,-0.000466,-0.003032,-0.002974
36.200528,0.001782,0.004805,0.000208
36.230647,-0.012663,-0.010194,-0.004196
36.270805,-0.001265,0.002143,0.001486
36.300924,-0.007603,-0.012772,0.002555
36.331043,0.006346,-0.002851,0.000063
36.361161,-0.005254,-0.001838,-0.001871
36.401320,-0.028958,-0.025102,0.000174
36.431438,-0.008392,-0.009633,-0.000684
36.461557,-0.005861,-0.006820,-0.003729
36.501715,-0.009950,-0.011945,-0.002899
36.531834,-0.009850,0.002547,-0.003949
36.561953,-0.005838,0.005892,-0.001617
36.602111,-0.014823,-0.013570,-0.004681
36.632230,-0.015339,-0.017283,-0.003661
36.662350,-0.002715,-0.001692,-0.002641
36.702508,-0.006699,-0.006220,-0.004713
36.732627,-0.002977,0.000479,0.002672
36.762745,-0.011310,-0.005623,-0.001799
36.802904,-0.004673,-0.007347,-0.003641
36.833022,0.000471,0.005727,-0.001221
36.863141,0.010229,0.008875,0.001220
36.903299,0.000546,-0.000489,-0.003485
36.933418,0.013017,0.013040,-0.004543
36.963537,0.007115,-0.000209,-0.000744
37.003695,0.002322,-0.001766,-0.000331
37.033814,0.010645,0.007417,-0.000932
37.063932,0.013063,0.013300,-0.006415
37.104091,-0.007680,-0.007919,-0.000013
37.134209,0.007478,0.000061,-0.001794
37.164328,0.000062,-0.000054,-0.000360
37.194447,-0.022428,-0.019768,0.002943
37.234605,-0.003009,-0.006082,-0.007831
37.264724,0.001463,0.007838,-0.007854
37.294842,0.002116,-0.002915,-0.000636
37.335001,-0.003814,-0.010898,-0.000640
37.365120,0.007942,0.009323,-0.005140
37.395238,-0.006121,0.005277,0.000859
37.435397,0.000200,-0.001644,0.000010
37.465515,0.014384,0.009176,-0.003301
37.495634,0.004458,-0.001286,-0.002007
37.535792,0.002991,0.006106,-0.002596
37.565911,0.001053,0.005814,-0.004564
37.596030,0.006679,0.003616,-0.003470
37.636188,0.002390,0.003751,-0.003256
37.666306,0.001450,0.000624,-0.000446
37.696424,-0.004301,-0.006636,0.000968
37.736583,0.001949,-0.001075,-0.004282
37.766701,0.002222,0.004727,-0.002981
37.796820,0.007565,0.003455,-0.006026
37.836978,-0.001461,-0.002541,0.003740
37.867097,0.002038,-0.002786,0.001425
37.897216,0.007669,0.012973,-0.000639
37.937374,-0.007314,-0.002399,-0.004365
37.967493,-0.002616,-0.002867,-0.001967
37.997612,0.004382,0.000679,-0.000598
38.037770,-0.007407,-0.009750,0.000496
38.067889,0.000397,-0.005097,-0.000203
38.098007,0.007774,0.006173,-0.008665
38.128126,0.002873,0.003145,-0.004827
38.168284,0.004427,-0.001224,-0.002463
38.198403,-0.003638,-0.004992,0.001474
38.228522,0.001006,-0.000032,-0.001818
38.268680,0.006496,0.011094,-0.002418
38.298799,-0.006545,-0.007487,0.002361
38.328917,-0.003755,-0.010690,0.000899
38.369076,-0.002094,0.000714,-0.003520
38.399195,0.001234,-0.002818,-0.001940
38.429313,-0.001669,-0.002606,-0.002482
38.469472,0.002141,0.003683,-0.004716
38.499590,0.002348,0.000809,-0.001378
38.529709,-0.014481,-0.010954,0.000194
38.569867,-0.002241,-0.005205,-0.002113
38.599986,0.000976,-0.003267,-0.001726
38.630105,0.001427,0.003607,-0.005598
38.670263,-0.003876,-0.003181,-0.002617
38.700382,-0.004996,-0.008812,0.002913
38.730500,0.004936,0.004536,-0.004502
38.770659,-0.006780,-0.005159,-0.002165
38.800777,-0.007246,-0.005341,0.000499
38.830896,-0.004023,-0.000898,-0.005386
38.871054,-0.004090,-0.004672,-0.003376
38.901173,-0.003379,-0.006391,0.001833
38.931292,0.000076,-0.006885,-0.000174
38.961411,-0.001175,-0.001029,-0.004559
39.001569,-0.011480,-0.006943,-0.003924
39.031688,-0.007200,-0.008934,-0.005237
39.061806,-0.000297,-0.004842,-0.000196
39.101965,-0.009133,-0.011376,-0.000626
39.132083,-0.003834,-0.001086,-0.001867
39.162202,0.002200,0.007918,-0.003484
39.202360,-0.004519,-0.004346,0.003195
39.232479,-0.013722,-0.018516,0.003117
39.262598,-0.004931,-0.005365,-0.006667
39.302756,0.001794,0.004058,-0.002276
39.332875,-0.004687,-0.004750,-0.001487
39.362994,-0.002022,-0.001892,-0.000970
39.403152,-0.011100,-0.009183,0.001586
39.433271,-0.000422,0.001115,-0.002458
39.463389,-0.009398,-0.008712,-0.001325
39.503548,-0.007171,-0.008607,-0.003261
39.533666,0.001354,0.008384,-0.003401
39.563785,-0.008610,-0.003345,-0.002787
39.603943,-0.018815,-0.024784,0.001152
39.634062,0.002905,0.003029,-0.002844
39.664181,0.021564,0.034631,-0.004041
39.704339,-0.015927,-0.018343,-0.000167
39.734458,-0.007840,-0.008074,-0.004598
39.764576,0.006581,0.011293,-0.003351
39.794695,-0.011951,-0.015535,0.002468
39.834853,-0.002507,-0.003060,-0.003829
39.864972,-0.005211,0.003054,-0.009327
39.895091,0.006036,0.006096,-0.003617
39.935249,0.003447,-0.001639,-0.000638
39.965368,-0.008057,-0.011440,-0.002485
39.995487,0.008368,0.009700,-0.004369
40.035645,0.005878,0.009213,-0.000945
40.065764,-0.003601,-0.007983,0.000232
40.095882,-0.003496,-0.002468,-0.001106
40.136041,0.004909,0.005379,0.000765
40.166159,0.002676,0.004356,-0.004723
40.196278,-0.003244,-0.001253,-0.007514
40.236436,-0.001561,0.001396,-0.004276
40.266555,0.005564,-0.000888,0.000685
40.296674,-0.001256,-0.002747,-0.001305
40.336832,-0.009895,-0.012073,-0.002365
40.366951,0.007766,0.005795,-0.000774
40.397070,0.011205,0.017382,-0.004183
40.437228,-0.002091,-0.003470,0.000606
40.467347,-0.009672,-0.015831,0.001950
40.497465,0.008400,0.007910,-0.006931
40.537624,-0.001744,0.003471,-0.005589
40.567742,-0.015626,-0.012689,-0.002351
40.597861,0.000060,-0.001251,-0.002436
40.627980,0.003691,0.001526,0.002371
40.668142,-0.001863,-0.005214,0.000274
40.698261,-0.007316,-0.006087,0.000292
40.728380,-0.003589,-0.000804,-0.002345
40.768538,0.009530,0.010032,-0.003297
40.798657,0.002431,-0.004951,0.001904
40.828775,-0.007980,-0.012686,-0.000440
40.868934,0.005975,0.013252,-0.003062
40.899052,-0.002364,0.003672,0.000901
40.929171,-0.008057,-0.011424,-0.001093
40.969329,0.000413,-0.000389,-0.002562
40.999448,0.002631,0.005144,-0.004622
41.029567,0.002571,-0.004985,-0.001471
41.069725,0.000950,0.000415,-0.006344
41.099844,-0.002438,0.000833,-0.007247
41.129963,-0.001971,-0.003901,0.003377
41.170121,-0.005202,-0.006896,-0.000823
41.200240,0.002396,0.003492,-0.003249
41.230358,-0.002605,-0.002736,-0.003268
41.270517,-0.002709,-0.005890,-0.004653
41.300635,-0.001687,-0.000633,-0.006520
41.330754,0.004406,0.003292,-0.003515
41.370912,0.000757,-0.004139,-0.000640
41.401031,-0.002596,-0.000950,0.002107
41.431150,-0.000221,0.003331,-0.000919
41.461268,-0.005017,-0.007879,-0.005924
41.501427,-0.005606,-0.004515,-0.003551
41.531546,-0.000501,-0.002201,-0.000684
41.561664,-0.005514,-0.019681,0.005202
41.601823,-0.008587,-0.013506,-0.001506
41.631941,-0.009184,-0.001184,-0.009854
41.662056,-0.011484,-0.012082,-0.006581
41.702214,0.000993,-0.004813,-0.001217
41.732333,-0.003412,-0.008939,0.000640
41.762452,-0.002118,-0.000037,-0.002558
41.802610,0.004559,0.008611,-0.000876
41.832729,-0.006133,-0.008038,0.003321
41.862848,-0.013881,-0.017276,0.002979
41.903006,0.005559,0.011325,-0.003818
41.933125,-0.007217,-0.013219,0.000237
41.963243,-0.005074,-0.009787,-0.001437
42.003402,-0.004481,-0.003671,-0.003393
42.033520,-0.000215,-0.002849,0.000859
42.063639,-0.011030,-0.016264,0.004016
42.103797,-0.010929,-0.007182,-0.003059
42.133916,0.006789,0.006349,-0.002569
42.164035,-0.006335,-0.006924,-0.002547
42.204193,-0.005588,-0.006952,-0.002531
42.234312,-0.006898,-0.008684,0.002775
42.264431,-0.004145,-0.007037,0.002188
42.294549,-0.000466,0.012160,-0.002299
42.334708,-0.010380,-0.007494,-0.005886
42.364826,-0.011938,-0.005580,-0.001127
42.394945,-0.000526,-0.002214,-0.002302
42.435103,-0.011476,-0.010146,0.000801
42.465222,-0.005378,-0.006392,-0.002235
42.495341,0.000506,0.003399,-0.005348
42.535499,0.001141,-0.002003,-0.002629
42.565618,0.007584,-0.001721,-0.000670
42.595737,0.002630,-0.001932,-0.000547
42.635895,0.000520,0.005059,-0.002237
42.666018,-0.005041,-0.000797,-0.000246
42.696136,-0.001538,0.003017,-0.002656
42.736295,0.001406,0.001439,-0.004760
42.766413,-0.004989,-0.000111,-0.005153
42.796532,-0.000017,-0.000386,-0.003960
42.836690,0.001624,0.006763,-0.000640
42.866809,0.002964,0.000677,-0.000813
42.896928,0.001416,0.003606,-0.003019
42.937086,0.001288,-0.003016,0.000460
42.967205,0.001688,-0.001776,-0.002399
42.997324,0.004817,-0.000440,-0.005616
43.037482,-0.001645,0.002238,-0.005775
43.067601,-0.001446,0.000666,-0.002997
43.097719,0.007759,0.003715,-0.001112
43.137878,-0.000243,-0.000456,0.001223
43.167996,0.001712,0.003556,-0.008899
43.198115,-0.001689,-0.001819,-0.002791
43.228234,0.001396,0.002747,-0.002896
43.268392,-0.001703,-0.005760,0.001096
43.298511,-0.010192,-0.011748,-0.000412
43.328630,0.004938,0.005939,-0.005722
43.368788,-0.005539,-0.011261,-0.003193
43.398907,0.002902,0.002451,-0.002111
43.429025,-0.001554,-0.003087,0.000548
43.469184,-0.003990,-0.005057,-0.000550
43.499302,0.003084,0.004621,-0.003668
43.529421,-0.001920,-0.000257,-0.001965
43.569579,-0.003078,-0.006281,-0.000882
43.599698,0.003254,0.005526,0.000209
43.629817,-0.011248,-0.012614,-0.001939
43.669972,-0.005842,-0.008014,-0.002651
43.700091,0.012539,0.011131,-0.004526
43.730210,0.001854,0.003920,-0.001876
43.770368,-0.014819,-0.015704,0.001619
43.800487,-0.000938,0.003232,-0.005431
43.830605,-0.001507,-0.003907,-0.003695
43.870764,0.008945,0.010748,-0.003058
43.900883,-0.009849,-0.005388,-0.000693
43.931001,0.000913,-0.003192,-0.001265
43.961120,-0.003889,0.000394,-0.006130
44.001278,-0.002387,-0.002514,-0.001899
44.031397,0.002362,-0.001540,-0.002788
44.061516,0.000893,0.001905,-0.003138
44.101674,0.001531,-0.001854,0.002781
44.131793,-0.001813,-0.008540,0.002765
44.161912,-0.003398,-0.000458,-0.005115
44.202070,-0.000452,0.003821,-0.006565
44.232189,-0.004580,-0.008935,0.003479
44.262307,-0.010779,-0.018059,0.007304
44.302466,0.002021,-0.003136,-0.001122
44.332584,-0.000180,0.003193,-0.005824
44.362703,-0.000294,0.002070,-0.003749
44.402861,-0.000198,-0.005627,-0.003947
44.432980,0.004226,-0.005567,-0.002505
44.463099,-0.000011,-0.000772,-0.002535
44.503257,0.002755,0.007841,0.000336
44.533376,0.005960,0.005873,0.003253
44.563495,0.002525,-0.001293,0.002367
44.603653,-0.010174,-0.008014,0.001538
44.633772,-0.008384,-0.003437,-0.002967
44.663889,0.004150,0.004408,-0.003763
44.704048,-0.006599,-0.002493,-0.007005
44.734167,-0.009394,-0.007224,-0.002700
44.764285,-0.002740,-0.005924,0.000876
44.794404,0.000091,-0.004398,0.001478
44.834562,0.004694,0.003047,-0.003495
44.864681,-0.001438,-0.000122,-0.000628
44.894800,-0.004323,-0.006355,-0.000299
44.934958,-0.000573,0.002431,-0.001947
44.965077,0.007415,0.005254,-0.003224
44.995196,-0.018258,-0.020711,0.000076
45.035354,0.003129,0.000436,-0.002309
45.065473,0.009232,0.014994,-0.001037
45.095591,-0.014570,-0.014204,-0.005081
45.135750,-0.010505,-0.009799,-0.003065
45.165868,-0.012693,-0.012105,-0.001087
45.195987,0.003804,-0.001566,-0.000145
45.236145,-0.008495,-0.005855,-0.003939
45.266264,-0.011531,-0.007786,-0.006622
45.296383,0.007922,0.005274,-0.005111
45.336541,0.005351,0.001451,-0.000901
45.366660,-0.007233,-0.007663,-0.004385
45.396779,-0.002125,0.000932,-0.003418
45.436937,-0.005867,0.000031,0.001144
45.467056,0.002574,-0.004358,-0.002029
45.497174,-0.004514,-0.009680,0.000314
45.537333,-0.005156,-0.002215,-0.002371
45.567452,0.012761,0.009961,-0.004708
45.597570,0.001214,0.005892,-0.001830
45.637729,-0.003869,-0.004926,-0.000703
45.667847,0.002941,-0.001179,-0.000643
45.697966,0.009910,0.013484,-0.003447
45.728085,-0.004353,-0.003007,-0.005000
45.768243,-0.008189,-0.011017,-0.000713
45.798362,-0.004629,-0.004489,-0.003906
45.828481,0.004004,0.008882,-0.004497
45.868639,-0.002071,-0.006917,0.000695
45.898758,-0.001084,0.000419,-0.002679
45.936376,0.008202,0.012175,0.001372
45.976535,-0.002790,-0.002293,-0.007416
46.006653,-0.010489,-0.005328,-0.002878
46.036772,-0.003245,-0.003254,-0.002995
46.076930,0.001463,-0.001911,0.002183
46.107049,-0.007485,-0.008701,-0.002564
46.137168,-0.000642,0.002424,-0.004278
46.177326,0.000315,-0.004384,-0.003907
46.207445,0.003881,0.003978,-0.000541
46.237564,0.000125,-0.003471,-0.002651
46.277722,-0.003973,-0.003288,-0.001218
46.307841,-0.000549,0.003745,-0.003035
46.337960,0.005195,0.002255,-0.002046
46.378118,-0.005276,-0.004642,-0.001392
46.408237,-0.002095,-0.004249,-0.002870
46.438355,-0.001968,-0.002096,-0.000759
46.478514,0.006108,0.004630,-0.003830
46.508632,0.001353,0.001481,-0.000584
46.530001,-0.002764,-0.000785,-0.002948
46.560120,-0.006121,-0.007807,-0.005126
46.600278,-0.004349,-0.003142,-0.001720
46.630397,-0.004568,0.000433,-0.001679
46.660517,-0.003744,-0.008075,-0.004178
46.700675,0.004992,0.005800,-0.004724
46.730794,-0.000737,0.000887,-0.003313
46.760912,-0.008721,-0.011906,0.002562
46.801071,0.006203,0.008676,-0.005326
46.831190,-0.000999,-0.003255,-0.003067
46.861308,-0.004684,-0.007428,0.001369
46.901467,-0.002533,0.005519,0.000261
46.931585,-0.002635,-0.000751,-0.003402
46.961704,-0.009460,-0.007568,-0.004273
47.001862,0.003501,-0.000560,-0.000462
47.031981,-0.003971,-0.009933,-0.000154
47.062100,-0.010395,-0.013747,-0.000397
47.102258,-0.004852,0.001178,-0.004808
47.132377,-0.006468,0.001260,-0.005758
47.162496,-0.002024,-0.006971,-0.001262
47.202654,0.004642,0.002758,-0.002268
47.232773,-0.000654,0.000854,-0.003542
47.262892,-0.008740,-0.007918,-0.001329
47.303050,0.002414,0.002671,0.002300
47.333169,0.002337,-0.004468,0.000334
47.363287,-0.007791,-0.005155,-0.002008
47.393406,-0.008029,-0.006152,-0.002931
47.433565,-0.002186,0.003359,-0.004380
47.463683,-0.001810,-0.004049,-0.000448
47.493802,-0.004574,-0.004124,-0.000726
47.533960,0.002772,-0.001012,-0.001096
47.564079,-0.003695,-0.005602,-0.001189
47.594198,-0.004341,-0.005304,-0.000152
47.634356,-0.006237,-0.005655,-0.002519
47.664475,0.001238,0.003557,-0.003577
47.694594,-0.002515,-0.001082,-0.001814
47.734752,-0.005744,-0.007795,-0.003600
47.764871,0.001204,0.005895,-0.003810
47.794990,-0.013167,-0.009463,0.002178
47.835148,-0.010846,-0.007316,-0.000353
47.865267,-0.008903,-0.003537,-0.002872
47.895385,-0.006242,-0.003863,-0.007183
47.935544,-0.010837,-0.007639,-0.001411
47.965662,0.004173,0.005961,-0.001275
47.995781,-0.002027,0.000923,0.000604
48.035940,-0.012157,-0.016133,-0.002479
48.066058,0.006221,0.008134,-0.009118
48.096177,-0.002151,0.003662,-0.001059
48.136335,0.000562,-0.002648,0.002715
48.166454,-0.004892,-0.004698,-0.003995
48.196573,0.007670,0.013124,-0.003001
48.226692,0.003156,0.008338,0.000802
48.266850,-0.004687,-0.008031,0.001222
48.296969,0.003317,0.000515,0.000088
48.327088,0.002204,-0.003343,-0.000764
48.367246,0.001760,0.000952,-0.001055
48.397365,0.008830,0.008370,-0.004943
48.427483,0.001603,0.001754,-0.001829
48.467642,-0.009290,-0.007664,0.000070
48.497760,-0.001533,-0.005874,0.000065
48.527879,0.001111,0.001797,-0.000817
48.568038,0.004232,0.001829,-0.001031
48.598156,0.005234,0.005017,-0.004369
48.628275,-0.005637,-0.002888,-0.004582
48.668433,-0.001662,0.002247,-0.001807
48.698552,-0.001724,-0.003418,-0.002352
48.728671,-0.002266,-0.008828,-0.001920
48.768829,0.006938,0.004336,-0.001933
48.798948,0.002466,0.004451,-0.004668
48.829067,-0.013642,-0.015077,-0.002391
48.869225,0.007392,0.008379,-0.002927
48.899344,-0.002148,-0.004863,0.000793
48.929463,-0.004171,-0.010050,0.000092
48.969621,-0.003786,-0.002153,-0.006850
48.999740,-0.004047,-0.006634,-0.002700
49.029859,0.000875,-0.003524,-0.002222
49.059977,0.003024,-0.000824,-0.003365
49.100136,0.006703,0.005955,-0.003861
49.130254,0.010662,0.007800,-0.002199
49.160373,0.003527,0.004259,0.003417
49.200532,-0.009683,-0.011736,0.001571
49.230650,-0.004163,-0.005356,-0.006487
49.260769,0.007826,0.010550,-0.006679
49.300927,-0.007249,-0.008171,0.000400
49.331046,-0.007602,-0.006594,-0.002582
49.361165,0.001742,0.007161,-0.002380
49.401323,-0.000822,-0.006650,0.000603
49.431442,-0.004538,-0.008340,-0.002144
49.461561,0.001223,0.001264,-0.001824
49.501719,-0.006182,-0.003939,-0.002844
49.531838,0.011227,0.005348,0.001124
49.561957,-0.006738,-0.007541,-0.001582
49.602115,0.009206,0.004416,0.002301
49.632234,0.005669,0.001913,-0.001888
49.662352,0.002264,-0.002325,-0.003308
49.702510,0.004797,-0.003389,0.005499
49.732629,-0.003605,-0.002698,-0.002689
49.762747,-0.015296,-0.009320,-0.005820
49.802906,0.007058,0.014029,-0.002347
49.833024,-0.009232,-0.014185,0.000190
49.863143,-0.004086,-0.013492,0.002360
49.893262,0.000210,0.000223,-0.000662
49.938406,-0.013186,-0.010913,-0.004468
49.978564,0.004106,0.003449,-0.006956
50.008683,0.008694,-0.003321,0.000214
50.038801,-0.014103,-0.018867,0.000203
50.068920,-0.004845,-0.002224,-0.002126
50.109079,-0.001177,0.002913,-0.002555
50.139197,-0.006759,-0.010280,0.001991
50.169316,-0.010126,-0.012419,0.002407
50.209474,-0.003872,0.000213,-0.003715
50.239593,-0.007474,-0.006507,-0.003067
50.269712,0.005759,0.005505,-0.005099
50.309870,-0.013638,-0.013572,-0.000503
50.339989,0.001784,-0.001196,-0.004627
50.370108,0.000748,0.003091,-0.001995
50.410266,-0.004987,-0.008085,0.000048
50.440385,-0.001038,-0.004227,-0.002340
50.470504,-0.002456,-0.000329,-0.005736
50.510662,0.002790,0.002381,-0.005790
50.532031,-0.005869,-0.000046,-0.003475
50.562150,0.003815,-0.001281,0.000046
50.602308,-0.000647,-0.002953,0.000167
50.632427,0.007064,0.011653,-0.003853
50.662550,0.010078,0.010205,-0.003612
50.702708,-0.014616,-0.009393,-0.002085
50.732827,0.002758,0.005157,-0.003980
50.762945,0.020578,0.015158,-0.000627
50.803104,-0.012318,-0.018701,0.002708
50.833223,-0.013226,-0.011812,-0.004534
50.863341,0.010102,0.011796,-0.008803
50.893460,0.002290,-0.004230,-0.002573
50.933618,-0.005360,-0.008741,0.000834
50.963737,-0.000305,-0.000805,-0.001788
50.993856,0.006928,0.012140,-0.005727
51.034014,-0.010006,-0.007419,0.000356
51.064133,-0.004000,-0.005135,-0.000393
51.094252,-0.000511,0.000382,-0.000791
51.134410,0.001095,0.001827,-0.004466
51.164529,0.005942,0.004025,-0.000651
51.194648,0.001674,-0.000474,-0.000496
51.234806,-0.001024,-0.001246,-0.002144
51.264925,0.003904,0.004257,-0.003422
51.295044,-0.006229,-0.009453,-0.000341
51.335202,0.010268,0.005570,-0.002220
51.365321,0.002666,0.002112,-0.005624
51.395440,-0.004382,-0.007713,-0.000607
51.435598,-0.000498,-0.002780,-0.001809
51.465717,-0.009563,-0.012439,0.002408
51.495835,0.003383,0.001030,-0.002813
51.535994,0.008560,0.008422,-0.001769
51.566113,-0.008684,-0.011944,0.002608
51.596231,-0.010667,-0.009502,-0.000422
51.636390,-0.003498,0.003314,-0.008785
51.666509,-0.002437,0.001968,-0.004129
51.696627,-0.005922,-0.009359,-0.000361
51.726746,-0.003775,-0.011247,0.001054
51.766904,-0.003253,-0.000978,-0.003050
51.797023,-0.011486,-0.003444,-0.005725
51.827142,-0.005526,-0.004459,-0.004408
51.867300,0.011064,0.006284,-0.003917
51.897419,0.001399,-0.002572,0.001437
51.927538,-0.007433,-0.008593,-0.001165
51.967696,-0.000471,0.001707,-0.000605
51.997815,-0.001582,0.001213,-0.002383
52.027934,0.004488,0.000252,-0.000499
52.068092,-0.004686,-0.010476,0.000402
52.098211,-0.006514,-0.005184,-0.002270
52.128330,0.015128,0.012607,-0.005393
52.168488,-0.011415,-0.012321,0.001335
52.198607,-0.007547,-0.006593,-0.000934
52.228726,-0.003368,-0.003325,-0.002227
52.268884,0.005467,0.000898,-0.001498
52.299003,0.000291,-0.001648,-0.001083
52.329122,0.001763,0.004520,-0.000554
52.369280,-0.000611,-0.004429,-0.002796
52.399399,0.006033,0.001021,-0.005565
52.429517,-0.009662,-0.004088,0.000462
52.469676,-0.003026,-0.010582,-0.000977
52.499795,-0.002267,-0.002381,-0.002293
52.529913,-0.007332,-0.010016,0.003789
52.560032,-0.003214,0.001829,0.001220
52.600191,-0.002531,0.001798,-0.006408
52.630309,-0.007934,-0.002594,-0.003223
52.660424,0.007046,0.004650,0.000285
52.700583,-0.018059,-0.021397,0.005637
52.730701,-0.018699,-0.020799,-0.003630
52.760820,0.000138,0.004606,-0.006529
52.800978,-0.005025,-0.002025,-0.000875
52.831097,-0.006477,-0.011192,0.000105
52.861216,0.001013,-0.001065,0.000520
52.901374,0.002854,0.007632,-0.002685
52.931493,0.010877,0.013172,-0.003287
52.961612,-0.012847,-0.011402,0.001766
53.001770,-0.004494,-0.003843,-0.002419
53.031889,-0.000180,-0.005798,0.000272
53.062008,0.002101,-0.000452,-0.002305
53.102166,0.017984,0.018980,-0.004549
53.132285,-0.005906,-0.005283,0.002283
53.162404,-0.008629,-0.006242,0.002456
53.202562,0.002193,0.001657,-0.001136
53.232681,0.000240,0.003402,-0.001247
53.262800,0.006078,0.004185,-0.001687
53.302958,0.006592,0.004731,-0.002026
53.333077,-0.008534,-0.004997,-0.005222
53.363196,-0.001796,0.005710,-0.003421
53.393314,0.006874,0.004917,-0.000115
53.433473,0.006300,-0.000131,0.001735
53.463592,-0.001997,0.000502,0.000038
53.493710,0.001606,0.005205,-0.004147
53.533869,-0.003952,0.000007,-0.005253
53.563988,-0.007088,-0.005229,0.000925
53.594106,-0.008217,-0.011648,0.005032
53.634265,-0.005694,-0.006043,-0.001905
53.664383,-0.001194,0.002924,-0.006544
53.694502,-0.001461,0.002087,-0.004704
53.734661,-0.003723,-0.005576,0.000219
53.764779,0.010675,0.003614,-0.005961
53.794898,0.000839,-0.000633,-0.001577
53.835057,-0.010729,-0.007853,0.003582
53.865175,0.001939,0.004752,-0.004162
53.895294,0.009222,0.009896,-0.004601
53.939183,-0.014878,-0.020950,0.003276
53.969301,-0.007681,-0.001827,-0.004697
54.009460,0.005579,0.005375,-0.002559
54.039579,0.008793,0.008444,0.000435
54.069697,-0.012021,-0.008327,-0.001549
54.109856,-0.002835,-0.006429,-0.000495
54.139975,-0.005693,-0.006284,-0.001750
54.170093,0.001091,0.003268,-0.004670
54.210252,-0.000707,-0.005239,-0.000623
54.240371,0.003380,0.003071,-0.001084
54.270489,0.005936,0.010502,-0.006544
54.310648,-0.007464,-0.009886,0.001845
54.340766,-0.003525,-0.007037,0.000495
54.370885,0.002668,0.001365,-0.002621
54.411044,0.004265,0.006403,-0.002084
54.441162,-0.013055,-0.011233,-0.001446
54.471281,-0.008891,-0.004979,-0.004684
54.511440,0.000368,-0.001429,-0.008810
54.541563,0.001171,-0.003262,0.005181
54.571682,-0.007107,-0.011692,0.002256
54.601801,-0.007387,-0.006268,-0.001941
54.641959,0.002181,0.005870,-0.005948
54.672078,-0.002725,-0.003740,-0.000982
54.702197,-0.004704,-0.011620,-0.002188
54.742355,0.011384,0.008373,-0.000255
54.772474,0.000947,0.005321,-0.003489
54.802593,-0.010013,-0.005544,0.001994
54.842751,-0.000740,0.003620,0.001725
54.872870,-0.006203,-0.007677,-0.002936
54.902989,0.000101,-0.003460,-0.002147
54.943147,0.004750,-0.000496,-0.003186
54.973266,-0.002089,-0.002453,-0.002647
55.003385,-0.000020,0.000291,-0.003834
55.043543,-0.010293,-0.009835,0.001934
55.073662,-0.006600,-0.010758,-0.001578
55.103781,0.011731,0.006290,-0.002083
55.133899,0.004726,0.004116,-0.002520
55.174058,-0.007872,-0.004279,-0.005229
55.204177,0.003835,0.001723,-0.003410
55.234295,0.001207,-0.002239,-0.003925
55.274454,-0.003724,-0.002057,-0.000106
55.304573,-0.003362,-0.005440,0.002674
55.334691,0.001931,-0.001918,0.001914
55.374850,-0.004432,-0.002084,-0.001841
55.404969,0.002447,0.005801,-0.007391
55.435087,-0.011069,-0.007542,-0.004159
55.475246,-0.001643,-0.001755,-0.000943
55.505365,-0.007992,-0.013524,0.002745
55.535483,-0.019103,-0.021915,0.001560
55.575642,-0.007058,-0.005137,-0.007046
55.605760,0.000247,0.003080,-0.005133
55.635879,-0.007882,-0.005882,-0.002554
55.676039,0.004109,-0.002631,-0.000260
55.706157,-0.004282,-0.007623,-0.004282
55.736276,0.011569,0.018981,-0.004028
55.776435,0.001100,0.004022,-0.001928
55.806553,-0.005678,-0.008866,-0.002426
55.836672,0.011903,0.008661,-0.004879
55.876831,-0.001645,-0.003429,-0.000511
55.906949,0.006572,0.008370,-0.005327
55.937068,0.007271,0.009109,-0.003993
55.967187,-0.008412,-0.006750,-0.001539
56.007345,-0.011182,-0.013056,0.000022
56.037464,-0.007330,-0.007641,0.001525
56.067583,-0.005319,-0.002416,-0.003569
56.107741,0.002695,0.005443,-0.003971
56.137860,-0.002254,0.003814,-0.003518
56.167979,0.007076,0.012135,-0.003303
56.208137,-0.002898,-0.008975,0.000719
56.238256,0.002344,-0.004569,0.002271
56.268375,0.011881,0.013676,-0.001625
56.308533,-0.006377,-0.001047,-0.008711
56.338652,-0.011039,-0.009023,-0.005182
56.368771,0.006511,0.001900,0.001255
56.408929,-0.007919,-0.014458,0.003482
56.439048,-0.007956,-0.011383,-0.003651
56.469167,0.000724,0.003512,-0.005218
56.509325,-0.003484,-0.004474,-0.001965
56.539444,0.008818,0.004981,0.000440
56.569563,0.001912,-0.003161,0.002173
56.609721,0.000888,-0.000103,-0.001529
56.639840,-0.003258,0.004346,-0.005269
56.669959,0.009756,0.012337,0.001420
56.710116,-0.008955,-0.008835,-0.000374
56.740235,-0.013119,-0.014728,-0.003631
56.770354,0.000779,0.002891,-0.004414
56.810512,0.003002,0.004297,-0.002557
56.840631,-0.005394,-0.006979,-0.003867
56.870750,0.001685,0.003143,-0.000867
56.900869,-0.005011,-0.004101,-0.002047
56.941027,0.010106,0.012014,-0.002333
56.971146,-0.012822,-0.012362,0.002245
57.001265,0.003091,0.001037,0.000953
57.041423,-0.003863,-0.003864,-0.002774
57.071542,-0.004140,-0.003773,-0.002086
57.101661,0.001258,0.000311,-0.003096
57.141819,-0.000857,0.001492,-0.004436
57.171938,0.004430,-0.000847,-0.000251
57.202057,0.002353,0.000880,0.000210
57.242215,-0.010091,-0.003515,-0.005400
57.272334,-0.008862,-0.005831,-0.002957
57.302453,0.002154,-0.001010,-0.001499
57.342611,0.004698,-0.004003,0.001390
57.372730,-0.009384,-0.012121,-0.000749
57.402849,-0.005615,-0.000712,-0.004465
57.443007,0.002303,0.005581,-0.005437
57.473126,0.006887,0.000484,-0.003533
57.503245,0.002052,-0.004435,-0.001804
57.543403,-0.002662,-0.004389,-0.000298
57.573522,0.008083,0.014153,-0.004714
57.603641,0.003590,0.005093,-0.001263
57.643799,-0.002115,-0.007813,0.001097
57.673918,-0.009692,-0.008800,-0.004318
57.704037,0.006486,0.007933,-0.005798
57.734155,-0.013239,-0.009360,-0.002125
57.774314,-0.001826,-0.004071,0.002422
57.804433,-0.011200,-0.009128,-0.001260
57.834551,0.003188,0.001718,-0.001221
57.874710,0.007186,0.006010,-0.001826
57.904829,0.003707,0.000381,0.001113
57.944982,-0.002371,-0.003581,0.001485
57.975101,-0.000150,0.005304,-0.001829
58.005220,-0.008552,-0.005110,0.001146
58.035338,-0.018435,-0.021153,-0.000878
58.075497,0.001276,0.000293,-0.005663
58.105616,-0.004198,-0.007078,0.001290
58.135734,-0.010482,-0.014484,0.002675
58.175893,0.003061,0.011366,-0.001327
58.206012,-0.009563,-0.006347,-0.004063
58.236130,-0.011063,-0.008089,-0.002291
58.276289,-0.005407,-0.008991,0.003758
58.306408,-0.007839,-0.006290,0.003637
58.336526,-0.010436,-0.007270,-0.000088
58.376685,-0.004610,-0.006992,-0.007794
58.406804,-0.003855,-0.001659,-0.005620
58.436922,0.001952,-0.000741,-0.001188
58.477081,-0.005008,-0.009261,-0.001079
58.507200,0.000818,0.002824,-0.001170
58.537343,0.000948,0.007468,-0.000967
58.567462,0.004140,0.004242,0.000623
58.597581,-0.004290,-0.004128,-0.001578
58.637739,0.000324,0.001556,-0.000960
58.667859,-0.001131,0.000504,-0.001399
58.697978,-0.002265,-0.000189,-0.004298
58.738136,-0.006831,-0.007316,0.000230
58.768255,0.005885,0.000014,0.000011
58.798374,-0.000704,0.000487,-0.000729
58.838532,0.004969,0.006318,-0.003180
58.868651,0.001208,0.001269,-0.000308
58.898770,-0.010218,-0.011910,-0.003661
58.928889,0.004362,0.005587,-0.004612
58.969047,0.001837,0.006322,-0.002479
58.999166,-0.004851,-0.010065,-0.000024
59.029285,-0.007123,-0.005057,-0.001467
59.069443,0.010835,0.012280,-0.008810
59.099562,-0.004160,-0.002214,-0.006782
59.129681,-0.005432,-0.004702,-0.002942
59.169839,-0.005238,-0.006770,0.003631
59.199958,-0.000639,-0.004741,-0.003149
59.230077,0.000564,-0.003261,-0.001629
59.270235,-0.003532,-0.000209,-0.003774
59.300354,0.001334,0.003903,-0.001875
59.330473,-0.000506,-0.004997,-0.000799
59.370631,-0.005141,-0.004247,-0.001631
59.400750,-0.002313,-0.003826,-0.001820
59.430869,0.003311,0.000769,-0.001392
59.471027,-0.000826,0.003152,-0.000592
59.501146,-0.000516,-0.006797,-0.000435
59.531265,-0.001885,-0.007272,0.000316
59.571423,0.007177,0.007201,-0.005833
59.601542,0.000929,0.003992,-0.001732
59.631661,-0.003981,-0.006708,-0.002872
59.671818,-0.000423,0.002161,0.000392
59.701937,-0.004787,-0.005561,-0.000579
59.732056,-0.003011,-0.005754,-0.005824
59.762175,0.000251,0.002567,-0.003629
59.802333,-0.000601,-0.003058,-0.001166
59.832452,0.003916,0.004334,-0.005859
59.862571,-0.006429,-0.005039,0.000443
59.902729,0.010429,0.009019,-0.002688
59.932848,-0.004692,-0.002465,-0.002857
59.962967,-0.003683,-0.007650,0.002483
60.003125,0.009104,0.004993,-0.002368
60.033244,-0.003908,0.000186,-0.002877
60.063363,-0.015606,-0.014575,-0.002755
60.103521,-0.001448,-0.004993,-0.004362
60.133640,0.004662,-0.000483,0.000777
60.163759,-0.002466,-0.011263,0.002111
60.203917,-0.010579,-0.008664,-0.005764
60.234036,0.000220,0.007933,-0.007816
60.264155,-0.001891,-0.006660,-0.002363
60.304313,0.007259,0.001504,-0.001890
60.334432,0.001267,0.000981,-0.000081
60.364551,-0.000244,0.004002,-0.000684
60.404709,-0.009305,-0.003241,-0.000176
60.434828,0.004006,0.000813,-0.001668
60.464947,-0.001443,-0.001754,-0.004684
60.505105,-0.004616,-0.006848,-0.001188
60.535224,-0.003828,-0.006644,-0.002298
60.565343,0.001411,0.004650,-0.003254
60.595462,-0.000499,0.000791,-0.003534
60.635620,-0.003372,-0.011653,-0.001080
60.665739,-0.003753,-0.003314,0.001018
60.695862,-0.005222,-0.005487,0.000111
60.736020,-0.003158,-0.002294,-0.001051
60.766139,-0.007135,-0.006692,-0.003456
60.796258,0.004048,0.004254,-0.006440
60.836416,-0.004440,-0.001127,-0.000370
60.866535,0.000378,-0.003612,-0.001317
60.896654,-0.003988,-0.004270,-0.002451
60.936812,0.001336,0.001778,-0.000704
60.966931,-0.000793,0.001213,-0.004877
60.997050,-0.012080,-0.005371,-0.004434
61.037208,-0.001463,0.003043,-0.001915
61.067327,0.001540,-0.002932,0.000092
61.097446,-0.004968,-0.007729,0.001133
61.137605,-0.007701,-0.005736,-0.005557
61.167723,-0.003859,-0.000151,-0.005300
61.197842,-0.000268,-0.001288,-0.001382
61.238001,-0.000350,-0.002213,-0.002079
61.268119,0.001515,0.000966,-0.003854
61.298238,0.015175,0.013844,-0.000263
61.338397,-0.010957,-0.022489,0.002203
61.368515,-0.035594,-0.061285,-0.000350
61.398634,0.014552,0.024394,-0.004674
61.438793,0.010865,0.027020,-0.003781
