time_tick,gyr_X_value,gyr_Y_value,gyr_Z_value
0.014503,-0.036519,-0.023927,-0.009209
0.044622,0.024157,-0.002223,-0.004379
0.084781,0.025588,-0.002995,0.002396
0.114900,-0.005851,0.004527,0.001378
0.145019,0.008085,-0.000753,0.001815
0.175138,-0.006673,-0.010878,0.003060
0.215297,-0.008775,-0.007576,-0.008587
0.245416,-0.004033,-0.020436,-0.000513
0.275535,0.042902,-0.015385,0.005506
0.315694,-0.002667,-0.028255,0.001665
0.345813,0.042492,0.001879,0.000342
0.375932,0.035269,0.000115,0.000298
0.416091,0.045375,0.002973,0.000836
0.446210,0.020271,0.005767,0.008132
0.476329,0.002645,0.003751,0.009942
0.516488,0.020513,-0.005747,-0.001636
0.546607,0.021742,-0.001101,0.006240
0.576727,-0.000238,-0.000290,0.019044
0.616885,-0.026967,-0.001369,0.024492
0.647005,-0.018849,-0.008037,0.010709
0.677124,-0.016929,-0.006542,0.005029
0.717283,-0.002724,-0.008451,0.007011
0.747402,0.007099,-0.013190,0.007951
0.777521,0.016107,-0.015556,0.001788
0.817680,0.021911,-0.008165,0.003751
0.847799,0.026975,-0.000090,-0.001181
0.877918,0.006615,-0.005556,0.011874
0.918077,-0.020344,-0.017001,0.024922
0.948196,-0.030767,-0.015718,0.028850
0.978315,0.076210,-0.023733,-0.016185
1.008434,0.031479,-0.021703,0.002534
1.048593,-0.057593,-0.003724,0.013120
1.078712,0.020390,-0.009119,-0.005155
1.108831,0.059624,-0.017031,-0.017036
1.148990,-0.012019,-0.012253,0.006959
1.179109,-0.009671,-0.001815,0.007346
1.209228,0.004702,-0.008211,-0.002373
1.249387,0.027787,-0.001992,-0.020237
1.279506,-0.005625,-0.010492,-0.009436
1.309626,-0.030304,-0.019490,-0.003266
1.349784,-0.016677,-0.001826,-0.005761
1.379904,0.009190,-0.004564,-0.008854
1.410023,0.026308,-0.005505,-0.007127
1.450182,0.014482,-0.011600,-0.002780
1.480301,0.020605,-0.002088,0.001718
1.510420,0.002899,-0.002598,0.014990
1.550579,0.040248,-0.014218,0.002357
1.580698,0.033000,0.003023,-0.016110
1.610817,0.011412,-0.004355,-0.008168
1.650976,-0.002225,-0.013823,-0.001005
1.681095,0.001140,-0.009664,0.000562
1.711214,-0.021811,-0.010310,0.010339
1.751373,-0.042994,-0.006453,0.024455
1.781492,-0.018306,-0.002023,0.019263
1.811611,-0.027302,-0.001926,0.015634
1.841730,-0.032873,-0.000937,0.012109
1.881889,-0.002347,-0.001559,0.011367
1.912008,0.016085,-0.001222,-0.002362
1.942127,0.033916,0.000062,-0.011341
1.982286,0.014820,0.003032,-0.004818
2.012405,0.018755,0.004446,-0.004066
2.042524,0.004450,0.003612,-0.003129
2.082683,0.021518,-0.001963,-0.005644
2.112802,0.012925,-0.001275,-0.004424
2.142922,-0.005628,-0.014031,-0.007602
2.183080,0.025325,-0.008334,-0.022240
2.213199,0.062977,-0.040190,-0.031828
2.243319,0.052841,-0.045300,-0.038703
2.283477,0.003716,-0.126015,0.011708
2.313597,0.099445,-0.075009,-0.011477
2.343716,0.077754,-0.051334,0.003185
2.383874,-0.024162,-0.084654,0.027348
2.413994,-0.025584,-0.028126,0.032247
2.444113,0.007343,0.004996,0.021561
2.484272,0.007536,0.021649,-0.001159
2.514391,0.014325,0.003292,-0.008232
2.544510,0.026380,0.001753,-0.001317
2.584669,-0.000469,0.004584,0.006350
2.614788,-0.023056,-0.008567,0.019219
2.644907,-0.013320,0.012500,-0.001081
2.675026,0.010162,0.026072,-0.009292
2.715185,-0.015881,0.014175,-0.006113
2.745304,-0.018725,0.005213,-0.010666
2.775423,-0.006196,0.011069,-0.017879
2.815582,0.025231,0.013465,-0.024000
2.845701,0.023828,0.007915,-0.016088
2.875820,0.000857,0.002600,-0.006874
2.915979,0.003637,0.014285,-0.004445
2.946098,0.002132,0.017461,-0.005238
2.976217,-0.012237,0.010815,-0.005477
3.016376,-0.001192,-0.001065,-0.005902
3.046495,0.007835,-0.004308,-0.006097
3.076617,0.014095,-0.003899,-0.013137
3.116776,-0.005022,-0.008672,-0.007325
3.146895,-0.004933,-0.003037,-0.005462
3.177015,-0.002858,-0.008661,-0.007498
3.217173,-0.004817,-0.006148,-0.005613
3.247292,0.001506,-0.000373,0.002215
3.277412,0.016776,0.002258,-0.005061
3.317570,-0.001490,-0.001052,-0.004129
3.347690,0.005418,0.002504,-0.004486
3.377809,-0.000785,0.006855,-0.004895
3.417967,0.003037,-0.003427,-0.001170
3.448087,-0.001639,-0.004690,0.002994
3.478206,-0.009571,-0.003285,0.000311
3.508325,-0.011018,0.001038,0.000005
3.548484,0.005796,-0.007155,-0.001805
3.578603,0.003954,-0.002323,0.000663
3.608722,-0.006763,-0.001232,0.000146
3.648881,0.006568,0.000663,-0.000020
3.679000,0.004520,-0.000867,-0.002297
3.709119,0.000568,-0.001126,-0.004212
3.749278,-0.002740,-0.003752,-0.000890
3.779397,0.001667,-0.003423,-0.004432
3.809516,0.005629,-0.004371,-0.003560
3.849675,-0.002199,-0.000952,-0.001948
3.879794,-0.001605,-0.000126,-0.004087
3.909913,0.005245,0.001407,-0.003128
3.950072,-0.001591,-0.002345,-0.001770
3.980191,-0.007522,0.000748,0.000538
4.024080,-0.010993,-0.003543,-0.002363
4.054199,0.002813,-0.001029,-0.008759
4.084315,0.007166,-0.001435,-0.013255
4.124474,0.002965,0.005119,0.000424
4.154593,0.008288,-0.001440,0.004771
4.184712,0.005372,-0.000564,-0.000329
4.224871,-0.003354,0.000897,0.000127
4.254990,0.001930,0.001021,0.001317
4.285109,-0.003778,-0.002828,0.003655
4.325268,-0.004728,-0.001440,-0.001832
4.355387,-0.004511,-0.001978,-0.003561
4.385506,-0.000347,-0.002512,0.000059
4.425665,0.006799,-0.000677,-0.000089
4.455784,0.000530,0.000114,-0.001639
4.485904,0.006301,-0.000780,-0.003792
4.526062,0.007549,-0.001297,-0.000764
4.556182,-0.001394,-0.000784,-0.000810
4.586301,-0.010364,-0.001450,0.000246
4.616445,-0.005075,-0.003500,-0.000374
4.646564,0.003598,-0.004186,-0.003466
4.686722,-0.001789,-0.000803,-0.004534
4.716842,-0.002595,0.001364,-0.000247
4.746961,-0.005228,-0.000735,0.001364
4.787120,-0.003216,0.001112,-0.002885
4.817239,-0.004137,-0.003904,-0.002540
4.847358,-0.001186,-0.002004,-0.006442
4.877477,0.000385,-0.000613,-0.008280
4.917636,-0.008201,-0.000294,0.000912
4.947755,0.001215,-0.000092,-0.000617
4.977874,-0.004859,-0.000611,-0.004791
5.018033,0.002227,0.000050,-0.003684
5.048152,-0.007892,-0.006603,0.001958
5.078271,-0.009566,-0.006222,0.001951
5.118430,0.002336,0.001091,-0.005436
5.148549,0.002559,-0.002892,-0.003508
5.178668,-0.001747,-0.001127,-0.005858
5.218827,-0.003817,-0.000782,-0.000643
5.248946,-0.003128,0.000238,-0.001549
5.279065,-0.000010,-0.002536,-0.001977
5.319224,-0.000271,-0.002540,-0.003614
5.349343,-0.006253,-0.002512,-0.003927
5.379462,-0.006345,-0.005584,-0.005721
5.419621,-0.002861,-0.001011,-0.000532
5.449740,0.000874,0.000361,-0.005556
5.479859,-0.002922,-0.003855,-0.000621
5.520018,-0.003008,-0.000909,-0.000610
5.550137,0.000010,-0.001515,-0.002409
5.580256,-0.001728,-0.002890,-0.004175
5.620415,-0.008002,-0.002535,-0.000329
5.650534,0.006466,0.001303,-0.003469
5.680653,-0.001713,0.001685,-0.003138
5.710773,-0.004156,-0.003185,-0.001517
5.750931,0.003311,0.001565,-0.003632
5.781051,0.000513,-0.000778,-0.003687
5.811170,-0.008091,-0.000378,0.000564
5.851329,-0.007201,-0.002712,0.002092
5.881448,0.000392,-0.004698,-0.006305
5.911567,0.007470,-0.004184,-0.010813
5.951726,-0.011248,-0.003942,-0.003076
5.981845,-0.004789,0.000876,-0.001014
6.011964,0.000395,0.001162,-0.005485
6.052123,-0.001622,-0.004099,-0.003836
6.082241,-0.005278,-0.000287,-0.003306
6.112360,-0.002274,-0.004768,-0.002003
6.152519,-0.000561,-0.002258,-0.000944
6.182638,0.001948,-0.000572,-0.001375
6.212757,-0.001908,-0.003789,-0.001312
6.252916,0.001890,-0.001829,-0.002088
6.283035,-0.000462,-0.002419,0.000242
6.313154,-0.002066,-0.000378,-0.000014
6.353313,-0.002902,-0.002744,0.001112
6.383432,-0.000294,-0.003068,-0.002299
6.413551,0.001452,-0.004161,-0.003997
6.453710,-0.005985,-0.001948,-0.002553
6.483829,0.005100,0.000427,-0.006852
6.513948,0.005023,0.004259,-0.003394
6.544067,0.003058,-0.000789,0.002580
6.584226,-0.002194,0.000390,0.002446
6.614345,-0.002656,-0.002483,0.000742
6.644464,0.003907,0.000115,-0.004599
6.684623,-0.006450,-0.005568,0.000689
6.714742,-0.009067,-0.003523,0.000728
6.744861,0.000116,-0.005017,-0.006292
6.785020,-0.001920,0.000471,-0.005675
6.815139,0.003224,0.000766,-0.000942
6.845259,-0.001323,0.000140,0.002340
6.885417,-0.003493,-0.001500,-0.000998
6.915537,-0.000909,0.001235,-0.003298
6.945656,-0.002239,0.000123,-0.002417
6.985814,-0.001724,-0.002597,-0.001539
7.015934,-0.001122,-0.004175,-0.003080
7.046053,0.002651,-0.003524,-0.003373
7.086213,-0.004310,-0.000612,0.000560
7.116332,-0.000280,-0.003734,0.000079
7.146451,0.006326,-0.002923,-0.002790
7.186610,0.001186,-0.004930,-0.001488
7.216729,0.001010,-0.002533,-0.001958
7.246848,-0.000688,-0.001569,-0.003102
7.287007,-0.002443,-0.003067,-0.003336
7.317126,0.002508,0.000799,-0.005376
7.347245,-0.001156,0.002934,-0.003037
7.377364,0.003525,-0.003110,0.001086
7.417523,0.003902,-0.000555,-0.001076
7.447642,-0.003668,-0.005361,-0.002828
7.477761,-0.001117,-0.001917,-0.002402
7.517920,0.001866,-0.005723,-0.000127
7.548039,-0.003801,-0.001148,0.002304
7.578158,0.000193,-0.001428,-0.002271
7.618317,-0.002076,-0.002247,-0.002089
7.648436,0.000807,-0.000038,0.000913
7.678555,0.001313,0.000023,-0.000014
7.718714,0.001397,-0.004218,-0.005853
7.748833,0.000404,0.000299,-0.003880
7.778952,0.001287,-0.002370,0.000095
7.819111,-0.004373,-0.002830,-0.000767
7.849230,-0.002737,-0.001827,-0.003153
7.879349,0.000640,-0.004312,-0.000718
7.919508,0.002427,0.001697,-0.003096
7.949627,-0.004800,-0.004182,-0.000115
7.979746,0.000178,-0.003215,-0.004663
8.024900,-0.002467,-0.000425,-0.003553
8.055019,-0.003890,-0.000792,-0.002953
8.085137,-0.004720,-0.003450,-0.001513
8.125296,0.001991,-0.001391,-0.001341
8.155415,-0.004136,-0.005463,-0.002643
8.185535,-0.007925,-0.002056,0.000533
8.225693,0.005263,-0.000622,-0.006736
8.255812,-0.002237,0.004353,-0.001448
8.285932,-0.002887,-0.004092,0.004194
8.326090,-0.001001,-0.000720,-0.002468
8.356210,-0.001225,-0.005772,-0.005748
8.386329,-0.001494,0.000189,-0.000697
8.426487,0.000076,-0.001941,0.003731
8.456607,0.005652,-0.003978,-0.000876
8.486726,0.004384,-0.001697,-0.004362
8.526885,0.000955,-0.001590,-0.000027
8.557004,-0.000848,-0.001035,-0.000614
8.587123,0.001146,-0.000985,-0.001852
8.617242,0.004029,-0.002875,-0.004243
8.657401,-0.003563,-0.001923,-0.004050
8.687520,0.004739,-0.000548,-0.002774
8.717639,0.002502,-0.000621,-0.004219
8.757798,-0.004956,-0.001350,-0.001453
8.787917,0.002952,0.001014,-0.003588
8.818036,-0.004113,-0.000810,-0.002193
8.858195,-0.001734,-0.002774,-0.003282
8.888314,-0.001808,0.001018,-0.001385
8.918433,-0.003557,-0.001464,-0.003301
8.958592,-0.002699,-0.005173,-0.003461
8.988711,0.000463,-0.003536,-0.005111
9.018830,-0.001320,0.000957,-0.004440
9.058989,-0.005140,-0.004823,-0.001926
9.089109,0.006319,-0.001497,-0.004133
9.119228,0.000284,0.001214,-0.008597
9.159387,-0.005186,-0.002075,0.001327
9.189506,-0.005000,-0.004756,0.000413
9.219625,-0.003839,-0.001063,-0.003033
9.259784,-0.005021,-0.007940,-0.004641
9.289903,0.001328,-0.003034,-0.000418
9.320022,-0.007394,-0.009215,0.006075
9.360181,0.000257,0.003156,-0.004150
9.390300,-0.000589,-0.000294,-0.004786
9.420419,-0.001276,0.002400,-0.003150
9.450539,-0.000986,0.003772,-0.003278
9.490697,-0.005876,0.002014,-0.001642
9.520816,-0.003546,-0.003016,-0.003015
9.550936,-0.001529,-0.003184,-0.003202
9.591094,-0.003953,-0.001256,-0.004838
9.621214,-0.010080,-0.000901,-0.005302
9.651333,-0.011334,-0.003793,0.000431
9.691491,-0.007307,-0.000722,-0.005845
9.721611,-0.000344,-0.001601,-0.004626
9.751730,-0.000766,-0.004236,-0.001013
9.791889,-0.002810,-0.002514,-0.001336
9.822008,-0.004337,-0.000885,-0.001859
9.852127,-0.006169,-0.000789,-0.003538
9.892286,0.002337,0.001236,-0.008923
9.922405,-0.010299,0.002589,-0.009680
9.952524,-0.004941,-0.002426,-0.005212
9.992683,-0.006665,-0.000265,-0.005605
10.022802,-0.006340,-0.002508,-0.003383
10.052921,-0.006517,0.001386,-0.006564
10.093080,-0.001796,-0.003228,-0.004630
10.123199,-0.007024,-0.004093,-0.002749
10.153318,-0.004528,-0.001669,-0.005405
10.193477,-0.006140,-0.001603,-0.004799
10.223596,-0.003518,-0.001272,-0.002060
10.253715,-0.009293,-0.003606,-0.001385
10.283834,-0.008958,-0.001829,-0.004471
10.323993,-0.002105,-0.003214,-0.003944
10.354112,-0.005200,-0.001303,-0.003636
10.384231,-0.010014,0.000475,-0.003376
10.424390,-0.005115,0.000796,-0.005440
10.454509,-0.007884,-0.000082,-0.003498
10.484628,-0.008815,-0.000046,-0.001950
10.524787,-0.001326,-0.001375,-0.003219
10.554906,-0.000577,0.002145,-0.001872
10.585025,-0.007065,-0.002678,-0.000317
10.625184,-0.010777,-0.003301,0.000105
10.655303,0.004778,0.000893,-0.000596
10.685422,0.002710,0.003707,-0.004326
10.725581,-0.008820,-0.003617,0.001439
10.755700,-0.000587,-0.001149,-0.001705
10.785820,-0.003920,-0.002427,-0.002769
10.825978,0.000138,0.000120,0.000643
10.856097,-0.002133,-0.002740,0.006344
10.886217,0.003723,-0.003863,0.004729
10.926375,0.002384,-0.004478,-0.004681
10.956494,0.003514,-0.004199,0.001806
10.986614,0.004755,-0.003601,0.002392
11.016733,-0.000661,-0.000944,0.003990
11.056892,0.002318,-0.003088,0.003321
11.087011,-0.000872,-0.003483,0.003298
11.117130,0.003410,-0.001283,0.000011
11.157289,0.002838,-0.005524,-0.001080
11.187408,-0.003820,-0.001528,0.001231
11.217527,-0.001596,-0.001059,0.001856
11.257686,0.002737,-0.003291,0.002567
11.287805,0.008379,-0.003248,-0.001701
11.317924,-0.000748,-0.004649,0.001009
11.358083,0.000262,-0.001763,-0.000518
11.388202,-0.003816,-0.003716,0.001414
11.418321,0.007622,0.000882,0.000280
11.458480,0.004328,0.004739,-0.004200
11.488599,0.000622,-0.005886,0.003626
11.518718,0.008277,-0.001180,0.002688
11.558877,-0.001324,-0.005372,-0.000230
11.588996,-0.002242,0.001175,0.000450
11.619115,-0.002797,-0.000158,0.001717
11.659274,-0.000779,-0.006936,0.003215
11.689393,0.001289,-0.003282,-0.002756
11.719512,-0.002297,-0.003888,-0.000557
11.759671,0.004088,-0.003332,-0.001608
11.789790,-0.001142,-0.001068,-0.000600
11.819909,0.000958,-0.004125,-0.001884
11.860068,0.002133,0.000287,-0.001448
11.890187,-0.005024,-0.000063,-0.002892
11.920306,0.002646,-0.001430,-0.002178
11.950425,-0.001483,-0.004479,-0.002114
11.990584,-0.005016,-0.002868,-0.001677
12.020703,-0.002753,0.000600,-0.001817
12.050822,-0.000996,0.002762,-0.000572
12.090981,0.000218,-0.002118,-0.000575
12.121100,0.004337,-0.003630,-0.002824
12.151219,0.001350,-0.003342,-0.003227
12.191378,-0.001704,-0.001704,-0.005240
12.221497,-0.007270,-0.000512,-0.000542
12.251617,0.004653,-0.001181,-0.005801
12.291775,0.007528,-0.002547,-0.004600
12.321895,0.008991,-0.004384,0.003447
12.352014,-0.001939,0.002486,0.003855
12.392172,0.001869,0.001151,-0.002072
12.422292,0.002713,-0.004450,-0.001650
12.452411,-0.002404,-0.004490,0.000623
12.492569,0.000567,-0.001995,0.001088
12.522689,-0.000002,-0.000631,-0.002058
12.552808,-0.004877,-0.002162,-0.001125
12.592967,0.005626,-0.001116,-0.001152
12.613046,0.001740,-0.000316,-0.002143
12.643200,0.001290,-0.001581,-0.002258
12.683359,-0.000816,-0.002609,-0.003220
12.713478,-0.002563,0.000336,-0.003494
12.743597,-0.001738,-0.003902,0.000700
12.783756,0.001043,0.000361,0.000029
12.813875,0.004949,-0.001012,-0.006117
12.843994,0.004811,0.001452,-0.001555
12.884153,-0.004222,-0.001934,0.000366
12.914272,0.001792,-0.002037,-0.002780
12.944391,-0.001313,-0.000412,-0.000479
12.984550,-0.002827,-0.003182,-0.001540
13.014669,-0.003290,-0.004531,-0.002077
13.044788,0.001033,-0.003694,-0.004320
13.074907,0.006102,-0.000938,-0.000811
13.115066,-0.002784,-0.002148,0.000036
13.145185,0.002327,-0.001160,-0.003418
13.175304,0.000842,-0.002965,-0.001668
13.215463,0.005628,0.000744,-0.002221
13.245582,0.003281,0.002065,-0.007091
13.275701,-0.002426,-0.001815,-0.001256
13.315860,0.000119,-0.004849,0.001856
13.345979,-0.002723,0.002233,-0.001361
13.376098,-0.004625,-0.003816,-0.001813
13.416257,-0.001044,0.000175,0.001986
13.446376,-0.007796,-0.003693,0.003716
13.476496,0.001603,-0.002825,-0.000248
13.516654,-0.001523,-0.001662,-0.004072
13.546773,0.001745,-0.000249,-0.001969
13.576893,0.005628,-0.000377,-0.002055
13.617051,-0.004903,-0.000530,-0.001356
13.647171,-0.006786,-0.002054,-0.000443
13.677290,-0.003237,0.000007,-0.004754
13.717448,-0.000670,0.000357,-0.003288
13.747568,-0.000193,-0.003707,0.000477
13.777687,-0.004600,-0.005279,0.000548
13.817846,0.001072,-0.000510,-0.003678
13.847965,0.005760,-0.002281,-0.002195
13.878084,-0.002833,-0.001754,-0.001206
13.908203,-0.004318,-0.002627,-0.002288
13.948362,0.001646,-0.003318,-0.002919
13.978481,-0.007161,-0.000511,-0.001823
14.008600,-0.007916,-0.003700,-0.003195
14.048759,-0.001053,-0.001359,-0.004337
14.078878,-0.003558,-0.000858,0.001509
14.108997,-0.000746,-0.000360,-0.000964
14.149156,-0.004279,-0.002311,-0.004809
14.179275,-0.000987,-0.003767,-0.004483
14.209394,0.007535,-0.000965,-0.007918
14.249552,0.000078,0.003238,-0.002876
14.279671,0.000481,-0.002858,0.005683
14.309790,-0.001296,-0.001888,0.001243
14.349950,-0.005322,-0.002578,-0.005067
14.380069,-0.001715,0.000285,-0.001085
14.410188,-0.005291,-0.001010,0.003761
14.450346,-0.007542,-0.000707,-0.000792
14.480465,-0.003043,-0.004855,-0.003329
14.510584,-0.002762,-0.003325,-0.004978
14.550744,-0.003151,-0.001329,-0.003845
14.580863,-0.003410,-0.000666,-0.002233
14.610982,-0.000651,-0.001973,-0.003085
14.651141,-0.000220,-0.003444,-0.003552
14.681260,-0.001663,-0.001012,-0.000675
14.711379,-0.005811,-0.002576,-0.000672
14.741499,-0.003219,-0.007342,-0.002628
14.781656,-0.002590,-0.003262,-0.002230
14.811776,-0.000020,-0.000724,-0.001841
14.841895,-0.001253,-0.002525,0.002434
14.882054,-0.006003,-0.005621,-0.000633
14.912174,0.000684,-0.001145,-0.003750
14.942293,-0.001056,-0.004635,-0.003283
14.982452,-0.010031,-0.003087,-0.001951
15.012571,-0.007537,-0.004171,-0.000946
15.042690,0.000342,0.000871,-0.006641
15.082849,-0.002324,-0.005708,-0.002544
15.112968,0.005169,0.002981,-0.006789
15.143087,0.000387,0.004116,-0.006289
15.183246,-0.004078,-0.001271,0.001375
15.213365,-0.001038,0.000910,-0.001626
15.243484,0.000001,-0.004660,-0.003971
15.283643,0.001490,-0.002230,-0.002168
15.313762,-0.004169,-0.005771,0.003187
15.343881,-0.004113,-0.005112,-0.000107
15.384040,0.001286,-0.002132,-0.003277
15.414159,-0.003414,-0.002070,0.000355
15.444278,0.005451,-0.003842,-0.001481
15.484437,0.002584,0.000229,0.000001
15.514556,0.000283,0.001034,0.000926
15.544675,-0.005548,-0.003623,0.001121
15.584834,0.006730,-0.005669,-0.007203
15.614953,0.005870,-0.002544,-0.006498
15.645072,-0.008376,-0.002234,0.005871
15.675191,-0.015476,-0.001001,0.003047
15.715350,-0.003691,0.002335,-0.000682
15.745469,0.008914,0.001498,-0.002767
15.775588,-0.001549,-0.004049,-0.003695
15.815747,-0.003571,-0.002058,-0.000984
15.845866,-0.003780,0.000202,-0.002576
15.875985,-0.002998,-0.002557,-0.005874
15.916144,-0.010048,-0.001461,-0.007111
15.946263,-0.000981,-0.002557,-0.009587
15.976382,-0.000244,0.005518,-0.010998
16.017761,0.007953,-0.001724,0.000742
16.057920,-0.008770,-0.006727,0.001925
16.088039,-0.002914,-0.001909,-0.005190
16.118158,-0.004397,-0.000515,-0.004197
16.158317,-0.007111,-0.008679,0.002608
16.188436,-0.006800,-0.003217,0.001028
16.218555,0.003869,-0.002675,-0.006162
16.258714,0.004179,-0.003995,-0.005392
16.288833,0.009572,-0.001200,-0.005427
16.318953,0.007811,-0.002378,-0.000028
16.359111,-0.005476,-0.002566,-0.001375
16.389231,-0.004942,-0.002854,-0.000287
16.419350,-0.001976,-0.003588,-0.001091
16.459508,-0.007762,-0.003954,-0.001389
16.489628,-0.009449,-0.006763,0.000117
16.519747,-0.002605,-0.002537,-0.000165
16.559906,0.000901,-0.002994,0.000123
16.590025,-0.001700,0.001345,-0.000005
16.620144,-0.003637,-0.002126,0.004835
16.650263,-0.006478,-0.004283,0.000817
16.690422,0.002612,-0.001296,-0.006018
16.720541,-0.018142,-0.005381,-0.001640
16.750660,0.005837,0.000267,-0.005788
16.790819,-0.007601,0.000429,-0.001705
16.820938,-0.006078,-0.002614,0.000358
16.851057,0.004883,0.000564,-0.000052
16.891216,-0.002397,0.000026,-0.003434
16.921335,-0.005696,-0.003591,-0.001320
16.951454,-0.006771,-0.001677,0.002627
16.991613,0.000997,-0.002231,-0.002238
17.021732,0.001858,-0.001139,-0.007806
17.051851,-0.002994,-0.003547,-0.002158
17.092010,-0.000320,0.004311,0.000114
17.122129,0.000182,-0.000287,-0.002373
17.152248,-0.004993,-0.002773,-0.003899
17.192407,-0.000337,-0.001087,-0.000793
17.222526,-0.000524,-0.002483,-0.002866
17.252645,0.001521,-0.003605,-0.003672
17.292804,-0.003455,-0.000560,-0.000948
17.322923,-0.003062,-0.000802,-0.000524
17.353042,0.000893,-0.003964,-0.001912
17.393201,-0.004098,-0.004503,0.000298
17.423320,-0.001536,0.001153,-0.001772
17.453439,-0.007037,-0.003602,-0.000048
17.483558,-0.007560,-0.004108,-0.003099
17.523717,0.001793,0.000176,-0.010127
17.553836,-0.005313,0.001525,0.000664
17.583956,-0.004052,-0.002660,0.002992
17.624114,-0.004284,-0.001582,0.000236
17.654233,-0.005205,-0.003710,-0.004186
17.684352,-0.003897,-0.000416,-0.001898
17.724511,-0.006331,-0.002507,0.000948
17.754630,-0.001321,0.000454,-0.004133
17.784750,-0.005515,-0.002336,-0.003043
17.824908,0.002137,0.001254,-0.002013
17.855028,-0.001717,-0.002073,-0.003158
17.885147,-0.007806,0.001280,-0.004020
17.925305,-0.005909,-0.001006,-0.004370
17.955425,-0.003350,-0.001099,-0.004745
17.985544,-0.008480,-0.001022,-0.001614
18.025703,-0.004161,-0.002857,-0.001640
18.055822,-0.004588,-0.001683,-0.002353
18.085941,-0.000499,-0.003050,-0.002591
18.126100,-0.003665,0.001331,-0.002818
18.156219,-0.004637,-0.004222,-0.003982
18.186338,-0.003382,-0.001780,-0.006856
18.226496,0.001390,-0.002761,-0.004675
18.256615,0.004741,0.000512,-0.005381
18.286734,-0.002933,-0.000969,0.000008
18.316853,-0.002820,-0.005862,-0.001080
18.357013,-0.004853,-0.000734,-0.001686
18.387132,-0.004586,-0.004194,-0.003229
18.417251,-0.001621,0.001163,-0.001615
18.457409,-0.006214,-0.003898,0.000936
18.487528,0.000295,-0.002821,-0.003630
18.517647,-0.001360,-0.003121,-0.006169
18.557807,-0.001053,0.001667,-0.004495
18.587926,-0.001668,0.001327,-0.001523
18.618045,-0.005307,0.000930,-0.000363
18.658204,-0.004034,-0.004540,-0.006520
18.688323,-0.002407,-0.003143,-0.002872
18.718442,-0.006598,-0.006054,-0.000786
18.758600,-0.005152,-0.004503,-0.004003
18.788719,-0.005643,-0.003207,0.000280
18.818838,-0.005867,0.000104,-0.001161
18.858998,-0.001630,-0.002682,-0.001883
18.889117,0.001780,-0.002541,-0.005723
18.919236,-0.002444,-0.002757,-0.004141
18.959395,-0.004426,0.000948,-0.001014
18.989514,0.000132,0.001122,-0.009358
19.019633,-0.004696,0.002010,-0.005239
19.059791,-0.005698,-0.001149,0.001239
19.089910,-0.005704,-0.002064,-0.001634
19.120029,0.001587,-0.004940,-0.002447
19.150149,0.004397,-0.004091,-0.000543
19.190307,-0.002361,-0.005327,0.005194
19.220426,-0.000750,-0.000208,-0.000715
19.250546,-0.002667,-0.003441,-0.001982
19.290704,0.007431,0.000887,-0.001012
19.320824,0.002479,-0.001486,0.001289
19.350943,-0.002879,-0.001562,-0.000287
19.391101,-0.000529,-0.003507,-0.000710
19.421221,0.004015,0.000478,-0.001207
19.451340,0.000111,-0.003733,-0.000052
19.491499,-0.005340,0.002797,0.001427
19.521618,-0.003086,-0.002581,0.000316
19.551737,0.003379,-0.004002,-0.001056
19.591896,0.000334,-0.004019,0.003392
19.622015,-0.001781,-0.001033,0.003004
19.652134,-0.003589,0.001395,-0.001540
19.692293,-0.003845,-0.002074,-0.001737
19.722412,0.009204,-0.001072,-0.002649
19.752531,0.004833,0.001281,-0.007789
19.792690,0.003520,-0.004646,0.003681
19.822809,0.000489,-0.000528,0.000757
19.852928,-0.000974,-0.004021,0.000404
19.893087,-0.003304,0.001148,-0.004600
19.923206,-0.002467,-0.005552,-0.000325
19.953325,0.000443,-0.007391,-0.000218
19.993484,0.002377,-0.002969,-0.004825
20.024858,0.000608,0.000561,0.001560
20.054977,0.000242,-0.000041,0.001413
20.085096,-0.001329,-0.001155,-0.000216
20.125255,0.003086,-0.003708,-0.006191
20.155374,-0.005737,-0.003184,-0.002679
20.185493,0.000349,-0.002299,0.001421
20.225652,-0.006208,-0.005147,-0.000186
20.255771,-0.003873,-0.002011,-0.002479
20.285890,-0.002209,-0.003734,-0.004261
20.326049,-0.000871,-0.000326,-0.002648
20.356168,-0.000597,-0.002689,-0.001083
20.386287,0.003161,-0.002223,-0.001901
20.426446,0.000383,0.001031,-0.001608
20.456565,-0.004249,-0.003204,-0.004050
20.486684,-0.001908,-0.002458,-0.001765
20.526843,-0.004445,-0.003500,-0.005590
20.556962,-0.001456,-0.000797,-0.001817
20.587081,0.005099,0.001676,-0.005653
20.607161,0.000149,0.003699,-0.003915
20.648609,0.001414,-0.006764,-0.000264
20.678728,0.000509,0.000112,0.002745
20.708847,-0.002633,-0.003645,-0.001655
20.749006,-0.000009,-0.004659,-0.002555
20.779125,-0.004960,-0.006629,0.001398
20.809245,0.002397,-0.005897,0.003413
20.849403,0.005283,-0.001288,-0.002216
20.879522,-0.000805,-0.002221,-0.000102
20.909642,0.000842,-0.002086,0.001185
20.949800,0.002507,-0.000267,-0.001159
20.979919,0.007455,-0.002186,-0.004592
21.010039,0.000166,0.001059,-0.002944
21.050197,-0.003111,-0.002014,-0.000331
21.080318,-0.000466,-0.002498,-0.002929
21.110437,-0.002664,-0.001857,-0.004488
21.150596,-0.007627,-0.000094,-0.000899
21.180715,-0.006388,-0.001401,0.000403
21.210834,-0.002170,-0.003564,-0.002479
21.250992,-0.002157,-0.002897,-0.002377
21.281111,-0.004581,-0.001842,-0.000968
21.311230,0.000877,0.001163,-0.006576
21.351390,-0.002868,-0.003187,-0.001763
21.381509,-0.005908,0.000911,-0.004035
21.411628,-0.000577,-0.004741,-0.001791
21.441747,-0.001088,-0.002768,-0.000261
21.481905,-0.005600,0.001378,-0.000911
21.512024,-0.000632,0.002831,-0.002721
21.542143,-0.011952,-0.000750,0.000324
21.582303,-0.001022,0.002681,-0.002551
21.612422,-0.016544,-0.012763,-0.006560
21.642541,-0.045583,-0.013708,0.001133
21.682700,0.008873,0.005282,0.001080
21.712819,0.063693,0.026204,-0.009611
21.742938,-0.017728,-0.010485,-0.000945
21.783096,0.006986,0.001970,-0.001138
21.813215,0.002298,-0.009332,0.001728
21.843334,0.005172,-0.003500,-0.001239
21.883494,-0.001831,-0.001096,-0.000276
21.913613,-0.007448,-0.001348,-0.000835
21.943732,0.001097,0.000668,-0.002213
21.983890,0.003463,-0.007486,-0.004647
22.014009,0.006797,-0.004498,-0.006005
22.044129,0.001835,0.003036,-0.005459
22.084288,-0.007248,0.002372,0.000330
22.114408,-0.006685,-0.003623,-0.000909
22.144527,0.004937,-0.002242,-0.006329
22.184686,0.003664,-0.002283,-0.000410
22.214805,0.000116,-0.002030,-0.001518
22.244924,0.006318,-0.004828,-0.005944
22.275043,-0.003086,-0.004773,-0.006573
22.315202,-0.008487,-0.000327,-0.003460
22.345321,-0.004628,-0.006421,-0.003013
22.375440,-0.007242,-0.002310,-0.004908
22.415599,-0.005934,-0.002931,0.000842
22.445718,-0.012569,-0.004606,-0.003321
22.475837,-0.007971,-0.003746,-0.004471
22.515996,-0.004278,0.004007,0.000313
22.546115,0.004221,-0.000458,-0.004590
22.576234,0.004179,0.001614,-0.003519
22.616393,0.001865,-0.001491,0.000627
22.646512,-0.002730,0.000140,-0.001980
22.676631,-0.006822,-0.005459,-0.004555
22.716790,-0.002292,0.001490,-0.000531
22.746909,-0.002737,-0.001404,0.001480
22.777028,-0.014432,-0.003975,0.000254
22.817187,-0.005292,-0.002421,-0.004821
22.847306,-0.004478,-0.001660,-0.001597
22.877426,-0.001287,0.004346,-0.001514
22.917584,-0.004284,0.001421,0.000181
22.947704,-0.003570,-0.003986,-0.000889
22.977823,-0.001304,-0.003462,-0.006389
23.007942,0.001956,0.002109,-0.005335
23.048101,-0.011422,-0.004039,-0.001824
23.078220,-0.002498,-0.001617,-0.001572
23.108339,-0.011092,-0.000890,-0.004120
23.148498,-0.003192,-0.005049,-0.004641
23.178617,0.002192,-0.002797,-0.004139
23.208736,-0.000036,0.000319,-0.002716
23.248895,-0.002245,-0.002758,-0.001037
23.279014,0.001159,-0.001609,-0.003441
23.309133,-0.007118,0.000633,0.000167
23.349292,0.000907,-0.003195,0.000822
23.379411,0.005728,-0.001970,-0.005581
23.409530,-0.005777,-0.002351,-0.000813
23.449689,0.004094,0.001180,0.004734
23.479808,0.002402,0.002165,-0.000862
23.509927,0.004317,-0.006677,-0.004624
23.550086,0.000736,-0.000939,0.000739
23.580205,-0.009853,-0.004225,0.006912
23.610325,0.000717,-0.000119,0.001490
23.650483,-0.002974,-0.005552,-0.002126
23.680603,0.003319,-0.002413,-0.004977
23.710722,0.003646,0.001847,0.001162
23.750881,-0.006084,0.000324,0.000790
23.781000,-0.003274,-0.001178,-0.000346
23.811119,0.002586,-0.001593,-0.004655
23.851278,0.003407,-0.000931,-0.002430
23.881397,0.001161,-0.004785,0.001419
23.911516,-0.000414,0.000390,-0.000895
23.941635,-0.005606,0.001452,0.000482
23.981794,0.002441,-0.000849,-0.001543
24.011913,0.004165,-0.000803,-0.003657
24.042032,-0.002433,-0.001887,0.000074
24.082190,-0.000640,-0.001516,0.000230
24.112309,-0.005826,-0.004298,-0.001017
24.142428,0.003497,-0.000627,-0.003206
24.182587,0.003175,0.003128,-0.005873
24.212706,0.003194,-0.003149,0.002001
24.242826,0.000641,0.000895,0.002339
24.282984,-0.002518,-0.004843,-0.000727
24.313104,0.006520,-0.000122,-0.002635
24.343223,-0.002421,-0.001251,0.004470
24.383381,-0.000401,-0.003761,0.005379
24.413501,0.003556,-0.001179,-0.001538
24.443620,-0.004699,-0.002892,-0.001541
24.483779,0.001844,0.002057,0.001138
24.513898,-0.004516,-0.001160,-0.001421
24.544017,0.003510,0.000325,-0.001166
24.584176,-0.002770,-0.001240,0.000557
24.614295,0.001154,-0.001325,-0.002298
24.644414,-0.002374,-0.004011,-0.000940
24.684573,-0.001988,-0.004662,-0.002487
24.714692,-0.002853,-0.002645,0.000179
24.744811,-0.004125,-0.003671,-0.000758
24.774930,-0.002454,0.000812,-0.004048
24.815089,-0.005053,-0.004302,-0.000564
24.845208,0.002449,-0.005694,0.000264
24.875327,0.000437,-0.000988,-0.002713
24.915486,-0.009047,-0.002675,-0.000137
24.945605,0.003185,0.002537,-0.001187
24.975724,0.001545,-0.000019,-0.006077
25.015883,-0.006653,-0.001353,0.000455
25.046003,0.003446,-0.002349,0.002013
25.076122,-0.004319,-0.003139,0.000176
25.116281,-0.001633,-0.003162,-0.002111
25.146401,-0.000216,-0.006591,-0.000360
25.176520,-0.001626,-0.005819,-0.000452
25.216679,0.002262,-0.002902,-0.001852
25.246798,-0.001724,-0.001185,0.000895
25.276917,-0.000477,-0.000682,-0.001112
25.317076,0.000425,-0.005272,-0.002427
25.347195,-0.000684,-0.001491,-0.000815
25.377314,-0.001374,-0.003080,-0.003830
25.417473,-0.001228,-0.001403,0.000469
25.447592,-0.005920,0.000745,0.000629
25.477711,-0.004842,-0.002364,-0.001616
25.517870,0.003967,0.000067,-0.002074
25.547989,0.001436,-0.002635,-0.003332
25.578108,0.001562,-0.002655,-0.002067
25.608227,-0.003492,0.002411,-0.000166
25.648386,0.000152,-0.000751,-0.001274
25.678505,0.000682,-0.004290,-0.004797
25.708625,-0.001333,-0.000465,-0.003044
25.748783,-0.006331,-0.002625,-0.000433
25.778902,-0.003592,-0.000278,-0.005896
25.809022,0.000194,-0.002504,-0.003700
25.849180,-0.005488,-0.003884,0.001564
25.879300,0.005296,-0.001185,-0.006968
25.909419,0.000335,-0.000409,-0.009771
25.949578,-0.006736,-0.003276,0.006364
25.979697,0.001519,-0.002424,0.002258
26.009816,0.003657,-0.001994,-0.004121
26.049975,-0.002520,-0.003888,-0.000187
26.080094,-0.003219,-0.001823,0.001004
26.110216,-0.005778,-0.003076,0.001238
26.150375,0.002038,-0.002022,-0.004141
26.180494,-0.003890,-0.004543,-0.002568
26.210613,0.005686,-0.000878,-0.003756
26.250772,-0.003387,-0.000478,-0.001191
26.280891,-0.005636,0.001386,-0.002983
26.311010,-0.001183,0.002327,-0.002989
26.351169,-0.004261,-0.000105,-0.002718
26.381288,-0.006164,-0.001975,-0.001575
26.411407,-0.007119,-0.007051,-0.002342
26.451566,-0.001955,-0.000856,-0.003394
26.481685,-0.005567,-0.002915,-0.002532
26.511804,-0.003849,0.002539,-0.004206
26.541924,0.000398,-0.002479,-0.002562
26.582082,-0.004222,-0.001503,-0.004248
26.612202,-0.003087,-0.004105,-0.002800
26.642321,0.001993,-0.002814,-0.003842
26.682480,-0.010828,-0.001469,-0.000454
26.712599,-0.014077,-0.002477,-0.001579
26.742718,0.005999,-0.002001,-0.005254
26.782877,-0.004370,-0.000397,-0.005258
26.812996,-0.005898,0.000632,0.002629
26.843115,-0.007286,0.000273,-0.003427
26.883274,-0.003534,-0.005855,-0.006907
26.913393,-0.000467,-0.003930,-0.002917
26.943512,-0.005846,-0.003247,0.000618
26.983671,-0.008364,-0.006332,-0.003431
27.013790,-0.001865,-0.004838,-0.006831
27.043909,-0.000683,-0.003182,-0.006119
27.084065,-0.002103,-0.001870,-0.002552
27.114184,-0.004527,-0.000994,-0.004505
27.144303,-0.008105,-0.004174,-0.001986
27.184462,-0.000844,-0.002856,-0.001937
27.214581,0.004096,-0.002073,-0.002013
27.244700,0.001631,-0.003691,-0.003600
27.274819,-0.004557,0.000380,-0.002580
27.314978,-0.001072,-0.002246,-0.000053
27.345097,0.001264,-0.000733,-0.001895
27.375217,-0.001190,-0.002776,-0.000056
27.415375,0.002335,-0.002537,0.001068
27.445495,-0.006578,-0.002570,-0.002279
27.475614,-0.001883,-0.006991,-0.002609
27.515773,0.006212,0.003265,-0.004147
27.545892,-0.001026,0.000915,0.002096
27.576011,-0.000760,0.000619,0.003317
27.616170,0.002554,0.000461,-0.000887
27.646289,-0.003876,-0.004604,-0.000001
27.676408,0.001091,-0.000558,0.000731
27.716567,-0.001000,-0.005659,0.003259
27.746686,0.001270,-0.002603,-0.001495
27.776805,0.001869,-0.000570,-0.004502
27.816964,-0.001586,-0.000687,0.000877
27.847083,0.003147,0.000263,-0.000569
27.877202,0.001971,-0.001093,-0.001590
27.917361,-0.004698,0.000749,-0.005101
27.947480,0.000475,-0.001006,-0.002511
27.977599,-0.000506,-0.000486,0.000848
28.017758,-0.001141,-0.004108,-0.002024
28.047877,0.006387,0.001066,-0.001814
28.077996,-0.002205,-0.001287,-0.001487
28.118155,-0.003697,-0.002853,-0.000051
28.148274,-0.002210,-0.000878,0.000182
28.178393,-0.002020,-0.003657,-0.000646
28.208513,-0.003621,-0.003398,-0.002581
28.248671,-0.003598,-0.005645,-0.001564
28.278791,-0.001029,-0.001975,-0.003732
28.308910,0.002073,-0.002433,-0.006341
28.349069,-0.001122,0.003280,-0.003023
28.379188,0.000357,-0.003692,0.003708
28.409307,-0.000714,0.000476,-0.001939
28.449466,-0.007391,-0.001739,-0.000721
28.479585,-0.003857,-0.001622,-0.000016
28.509704,-0.002462,-0.004631,0.000629
28.549863,0.000821,-0.005516,-0.000440
28.579982,-0.000329,-0.000144,-0.003531
28.610101,-0.005876,0.000893,0.001544
28.650260,0.004153,-0.000672,-0.002443
28.680379,0.001139,-0.001391,-0.004714
28.710498,-0.002752,0.000319,-0.000894
28.750657,-0.004943,-0.003621,-0.002968
28.780776,0.003531,-0.003823,-0.003283
28.810895,-0.003324,-0.001685,0.001062
28.851054,-0.002113,-0.003007,-0.003692
28.881173,-0.002401,-0.002890,-0.001630
28.911292,-0.000394,-0.002964,-0.002211
28.951451,-0.004009,-0.003158,0.001193
28.981570,0.001748,-0.001145,-0.002648
29.011689,-0.002852,-0.000002,-0.002702
29.041809,0.001286,0.001612,0.001522
29.081967,-0.004493,0.000574,-0.000820
29.112086,0.002309,-0.002322,-0.006820
29.142206,-0.000175,-0.002672,-0.005256
29.182364,-0.001124,0.000106,-0.002842
29.212484,0.005603,0.001024,-0.005537
29.242603,-0.002989,0.002957,-0.002817
29.282761,-0.000107,-0.005834,0.004349
29.312880,-0.001505,-0.000863,-0.002540
29.342999,-0.004617,-0.003292,-0.003128
29.383159,-0.003637,-0.004963,-0.002255
29.413278,0.001841,-0.004323,0.001005
29.443397,-0.000414,-0.002548,-0.004992
29.483555,-0.002347,-0.006369,-0.002376
29.513674,0.000909,-0.000095,-0.002471
29.543793,0.000607,0.000866,-0.002526
29.583953,0.001724,-0.002724,-0.002729
29.614072,-0.005699,0.000715,-0.002234
29.644191,-0.006928,-0.002452,-0.000579
29.684350,-0.003414,0.001511,-0.002245
29.714469,-0.006815,-0.002525,-0.000487
29.744588,-0.000543,-0.004826,-0.002469
29.784746,0.002290,-0.003818,-0.003287
29.814865,-0.003308,-0.000674,0.001345
29.844984,-0.000673,-0.002400,-0.001518
29.875103,0.001107,-0.003391,-0.002149
29.915263,-0.004696,-0.002335,-0.003031
29.945382,-0.003388,-0.002507,-0.003162
29.975502,-0.005849,-0.003479,-0.003243
30.015659,-0.006262,0.000870,-0.001981
30.045778,-0.002921,-0.001875,-0.002124
30.075898,-0.007737,-0.004654,-0.002589
30.116056,0.008546,0.002049,-0.006693
30.146176,0.000435,-0.001502,-0.008720
30.176295,-0.006932,-0.004189,0.000077
30.216454,0.000763,0.001368,-0.003026
30.246573,-0.005585,-0.003764,-0.005715
30.276692,-0.004660,-0.003172,-0.000957
30.316851,-0.004712,-0.004151,-0.000156
30.346970,-0.008636,-0.004561,0.002200
30.377089,-0.001326,0.000472,-0.003049
30.417248,-0.003389,-0.003763,-0.002532
30.447367,0.004730,-0.001868,-0.003855
30.477486,-0.002701,0.001296,-0.002959
30.517645,-0.007547,-0.003557,-0.002653
30.547764,-0.001969,-0.000965,-0.005196
30.577883,0.001051,-0.001684,-0.006213
30.618042,-0.009965,-0.002159,-0.002863
30.648161,-0.010013,0.000201,-0.001013
30.678280,-0.007013,-0.001014,-0.001618
30.708399,-0.008074,-0.002805,-0.001989
30.748558,0.000549,-0.001192,-0.003658
30.778677,-0.000007,-0.003384,-0.003444
30.808796,-0.005320,-0.002976,0.000379
30.848955,-0.007320,-0.004187,-0.005664
30.879074,-0.003067,-0.003346,-0.008227
30.909193,0.006747,0.003712,-0.010571
30.949352,-0.017393,0.001190,-0.004455
30.979471,-0.002892,0.002115,-0.001745
31.009590,-0.001194,0.003594,-0.005416
31.049749,-0.001581,-0.005409,-0.003653
31.079868,-0.006747,-0.003236,-0.002833
31.109988,-0.006483,0.001362,-0.000387
31.150146,-0.006613,-0.001377,0.001357
31.180266,-0.013022,-0.002897,-0.000888
31.210385,-0.011056,-0.004601,-0.005886
31.250544,-0.002005,-0.001182,-0.000225
31.280663,-0.007915,-0.004720,-0.000103
31.310782,0.005388,-0.002783,-0.001672
31.350941,0.005355,-0.002022,0.000871
31.381060,0.004415,0.001008,0.004789
31.411179,0.011000,-0.000875,-0.000400
31.451338,0.006919,-0.001543,-0.003794
31.481457,0.004300,0.000065,-0.003441
31.511576,-0.001791,-0.005866,0.000012
31.541695,-0.004888,-0.003844,0.002274
31.581854,0.002093,-0.001148,-0.001476
31.611973,-0.011294,-0.004822,0.003594
31.642092,-0.002758,-0.003096,0.002868
31.682251,0.006857,0.000298,-0.003394
31.712370,-0.004620,-0.002138,-0.000373
31.742489,0.001108,0.000382,0.004313
31.782648,0.000899,0.000938,0.002096
31.812767,0.005965,-0.002295,-0.002150
31.842886,0.003890,-0.000855,-0.002043
31.883045,-0.001026,-0.006283,0.001067
31.913164,-0.001514,-0.001032,-0.001425
31.943283,-0.003592,-0.001992,-0.004283
31.983442,-0.002424,-0.003612,-0.001395
32.013561,0.000903,-0.001826,0.001823
32.043680,0.003347,-0.001149,0.000189
32.083839,-0.001970,-0.004127,-0.003254
32.113958,-0.004675,-0.003588,-0.001478
32.144078,-0.001221,-0.001301,-0.001421
32.184236,-0.003084,-0.000865,0.000267
32.214355,0.000225,-0.003886,0.000278
32.244475,-0.000670,-0.003221,-0.001235
32.284633,0.003459,0.000083,-0.001072
32.314753,0.002461,-0.000351,-0.001671
32.344872,-0.004357,-0.001410,-0.001259
32.374991,-0.004976,0.001413,-0.000494
32.415150,0.008394,0.001741,-0.008085
32.445269,0.003528,0.002110,-0.009368
32.475388,-0.006261,-0.001345,0.002050
32.515547,-0.003054,-0.002540,0.002239
32.545666,0.003642,-0.001789,-0.002817
32.575785,-0.002214,-0.004139,-0.003263
32.615944,-0.001282,-0.006466,0.003655
32.646063,0.000401,-0.004399,0.004345
32.676182,-0.000251,-0.001191,-0.002392
32.716341,-0.004278,-0.002443,0.000380
32.746460,0.002814,-0.000214,-0.001497
32.776579,0.003491,-0.003741,-0.003580
32.816738,0.000751,-0.003978,-0.000595
32.846857,-0.006834,0.003247,-0.001288
32.876976,0.000982,-0.001149,-0.000945
32.917135,0.003615,-0.002956,-0.002772
32.947254,0.001135,-0.004093,-0.002645
32.977373,0.001244,-0.002482,-0.001505
33.017532,-0.000940,-0.002101,-0.001818
33.047651,-0.002052,-0.005600,-0.000737
33.077770,-0.002137,-0.003108,-0.000472
33.117930,-0.002668,-0.003261,0.000991
33.148049,-0.005506,-0.002466,0.001717
33.178168,-0.006955,-0.002267,-0.000228
33.208288,-0.002710,0.000238,-0.003145
33.248446,-0.005669,-0.001713,-0.000810
33.278566,0.005433,0.001066,-0.004725
33.308685,0.001437,0.001527,-0.008711
33.348843,0.002908,0.003114,0.000304
33.378963,0.003163,-0.001833,0.000294
33.409082,-0.003015,-0.001587,-0.000544
33.449241,-0.003143,-0.001967,-0.001871
33.479360,-0.003451,-0.000772,0.000704
33.509479,-0.000263,-0.007560,0.000593
33.549638,0.000276,0.000229,-0.001216
33.579757,-0.001714,0.001018,-0.001728
33.609876,-0.000312,-0.002052,-0.002151
33.650035,0.002766,-0.001000,-0.003294
33.680154,0.000097,0.000158,-0.002335
33.710273,-0.003937,-0.001774,-0.002174
33.750432,-0.005478,-0.001598,-0.003321
33.780551,-0.004631,-0.002061,-0.000169
33.810670,-0.000906,-0.002725,-0.003093
33.850829,-0.001355,-0.002486,0.000005
33.880948,-0.002075,0.000752,-0.002452
33.911067,-0.001101,-0.003328,0.000097
33.951226,-0.002751,-0.001185,-0.001546
33.981345,-0.000679,-0.003053,-0.002873
34.011464,-0.005213,-0.001435,-0.000276
34.041583,0.003403,-0.002468,-0.003023
34.081742,-0.007169,-0.003832,-0.004220
34.111861,-0.001093,-0.002662,-0.004090
34.141980,-0.000742,0.001086,-0.002241
34.182139,-0.002663,0.001252,-0.001615
34.212258,-0.002206,-0.004413,0.002159
34.242377,-0.000996,-0.000315,0.001109
34.282536,-0.005575,-0.001100,-0.006780
34.312655,-0.004019,-0.002286,-0.002491
34.342774,-0.005719,-0.004244,0.002685
34.382933,-0.002715,-0.001381,-0.002054
34.413052,-0.005943,-0.002581,-0.003050
34.443172,0.005665,-0.004235,-0.004950
34.483330,0.001548,0.000663,-0.003006
34.513450,-0.005498,0.000624,-0.002140
34.543569,-0.008622,-0.002805,-0.002451
34.583727,0.001615,0.001121,-0.004176
34.613847,0.000086,-0.001236,-0.003965
34.643966,-0.010417,-0.004604,-0.003899
34.684124,-0.007227,-0.001296,-0.004733
34.714244,-0.009946,-0.001357,-0.001371
34.744363,-0.003766,-0.002014,-0.004047
34.784522,-0.005367,-0.005924,-0.002732
34.814641,0.001916,-0.003601,-0.000873
34.844760,-0.001480,-0.000186,-0.002201
34.874879,-0.003410,-0.004295,-0.002985
34.915038,-0.005787,-0.006392,-0.005476
34.945157,0.001127,-0.000995,-0.001429
34.975276,0.009986,0.000764,-0.011274
35.015435,0.001679,-0.001250,-0.001217
35.045554,-0.001979,-0.000197,-0.002322
35.075673,-0.005270,-0.001734,-0.003921
35.115832,-0.002624,-0.001682,-0.004551
35.145951,-0.007280,-0.003324,-0.000746
35.176070,-0.008109,-0.003090,0.000454
35.216229,-0.006487,-0.001140,-0.006172
35.246348,-0.006694,-0.006682,-0.003903
35.276467,-0.005804,0.001981,-0.002910
35.316626,-0.011066,-0.000863,-0.003518
35.346745,-0.010011,-0.002866,-0.004052
35.376864,0.001722,-0.000892,-0.009396
35.417023,-0.006072,0.002063,-0.002249
35.447142,-0.006399,-0.004267,0.000106
35.477261,-0.004773,-0.000704,-0.004038
35.517420,-0.008246,-0.003282,-0.001915
35.547539,-0.009294,-0.003233,-0.002812
35.577658,-0.003778,-0.003784,-0.002021
35.617817,-0.005528,-0.002437,-0.003422
35.647936,-0.001679,0.000160,-0.005560
35.678055,-0.008782,-0.003412,-0.002670
35.708175,0.001298,-0.000984,-0.002398
35.748333,-0.002113,0.002527,-0.004672
35.778453,-0.002431,0.000451,0.004497
35.808572,0.002945,-0.003131,0.001792
35.848730,-0.005247,-0.000915,0.004484
35.878850,0.006514,-0.006751,0.001982
35.908969,0.003978,-0.004136,0.005551
35.949128,-0.002722,-0.002310,0.003736
35.979247,-0.002181,0.000824,-0.001557
36.009366,0.000278,-0.005804,-0.002442
36.049525,0.005275,-0.000155,-0.000269
36.079644,-0.000541,0.000080,0.000728
36.109763,-0.001660,-0.004268,-0.001363
36.149922,0.001155,-0.002082,-0.001485
36.180041,0.004767,-0.000631,-0.001959
36.210160,-0.002484,0.002345,-0.006474
36.250319,-0.005074,-0.003031,-0.002182
36.280438,0.002410,0.000102,-0.003594
36.310557,-0.000337,-0.000273,-0.001898
36.350716,0.001878,-0.000151,-0.000346
36.380835,0.000045,0.000426,-0.002779
36.410954,0.006192,-0.005023,0.000230
36.451113,0.003462,-0.001292,-0.003512
36.481232,0.008357,0.003993,-0.005861
36.511351,0.000646,-0.003386,0.003154
36.541470,-0.002159,-0.000716,0.006144
36.581629,-0.000353,0.002056,-0.002121
36.611748,-0.003215,-0.007882,-0.000775
36.641867,-0.002397,-0.001702,0.001975
36.682026,-0.002087,-0.000883,-0.001551
36.712145,0.002951,0.001198,-0.002027
36.742264,-0.002512,-0.001562,-0.000716
36.782423,0.002776,-0.002179,-0.002621
36.812542,-0.001445,-0.002450,-0.002951
36.842662,-0.003286,-0.003461,-0.003028
36.882820,0.000067,-0.003178,-0.002190
36.912939,0.001053,0.000854,0.002381
36.943059,-0.003552,-0.002751,0.000173
36.983217,-0.002247,-0.002255,-0.006578
37.013337,-0.004086,-0.003733,-0.001281
37.043456,-0.006588,-0.000146,-0.000176
37.083615,0.002681,-0.004507,-0.002900
37.113735,-0.000659,-0.000207,-0.004046
37.143854,-0.000942,0.001119,-0.001680
37.184013,-0.005104,-0.005595,-0.001744
37.214132,0.008334,-0.001970,-0.006938
37.244251,0.004751,-0.001828,-0.008429
37.284409,0.005691,-0.003131,-0.000561
37.314528,0.001517,-0.003489,0.002074
37.344647,-0.000216,0.005072,0.000449
37.374766,-0.002483,0.000187,-0.001801
37.414926,-0.008392,-0.004859,0.001482
37.445045,-0.003505,-0.007693,-0.000569
37.475164,0.007323,-0.000634,-0.003130
37.515323,-0.008227,-0.000657,0.000530
37.545441,-0.003620,0.000932,-0.000075
37.575560,0.000024,-0.001296,-0.001134
37.615719,-0.000485,-0.002493,-0.003930
37.645839,-0.001992,0.000801,-0.002154
37.675958,-0.005464,-0.003100,0.000444
37.716117,0.004015,-0.002290,-0.001662
37.746236,0.003244,-0.001056,-0.004500
37.776355,-0.000077,0.000034,-0.002165
37.816513,-0.000791,-0.004243,-0.003708
37.846632,0.001961,-0.002114,-0.002059
37.876751,-0.000458,-0.003776,-0.001329
37.916911,-0.004308,-0.001820,-0.002891
37.947030,-0.002032,-0.002069,-0.004704
37.977149,-0.000513,-0.005270,-0.003408
38.017308,-0.000281,0.000132,-0.000571
38.047427,-0.003253,-0.003781,-0.003435
38.077547,-0.002111,-0.002921,-0.002038
38.117704,0.004357,-0.001011,-0.007274
38.147823,-0.001819,0.002688,-0.000937
38.177943,-0.000205,-0.003474,0.004443
38.218101,-0.005767,-0.001648,0.000949
38.248221,-0.001246,-0.002772,-0.004223
38.278340,-0.006366,-0.005539,0.000381
38.308459,-0.008921,-0.003709,0.004438
38.348618,-0.001310,-0.006756,0.002214
38.378737,0.000906,-0.000460,-0.002948
38.408856,-0.005772,-0.001258,0.000854
38.449015,0.001858,-0.000225,-0.002686
38.479134,0.004483,0.002589,-0.004198
38.509253,0.002301,-0.003313,-0.002556
38.549412,-0.007020,-0.003502,0.000833
38.579531,-0.002728,-0.000062,0.000982
38.609650,-0.000097,-0.001508,-0.004798
38.649809,-0.006231,-0.003284,0.001766
38.679928,-0.003150,0.001181,0.003724
38.710047,-0.002817,-0.000864,-0.003074
38.750206,-0.000922,-0.000602,-0.001420
38.780325,-0.004480,0.004631,-0.002561
38.810444,-0.002247,-0.000678,-0.001685
38.850603,-0.002834,-0.004755,-0.002408
38.880722,-0.003780,-0.003253,0.001911
38.910841,-0.002773,0.000504,-0.004312
38.951000,-0.008301,-0.002672,-0.002080
38.981119,-0.001731,-0.001484,0.000697
39.011238,-0.001504,-0.000105,-0.007986
39.051397,-0.002380,0.000879,-0.002065
39.081516,-0.006431,-0.003607,0.002628
39.111635,-0.007394,-0.002356,-0.003087
39.141755,-0.003316,-0.003083,-0.003494
39.181913,-0.002851,-0.003013,-0.001209
39.212032,-0.006110,-0.007113,0.000551
39.242152,-0.005379,-0.001240,-0.002092
39.282310,-0.005059,-0.002198,-0.002017
39.312429,-0.001517,-0.001173,-0.004977
39.342549,0.000295,-0.000342,-0.002959
39.382707,-0.006133,-0.001194,-0.002688
39.412827,-0.010024,-0.004722,-0.001141
39.442946,-0.000550,-0.000879,-0.004108
39.483105,-0.008679,-0.002481,-0.002202
39.513224,-0.007586,-0.000583,-0.004985
39.543343,-0.004572,-0.000734,-0.005574
39.583502,-0.008355,-0.000402,-0.003118
39.613621,-0.004088,-0.003532,-0.002765
39.643740,-0.000365,0.001133,-0.007369
39.683899,-0.005453,-0.001487,-0.004282
39.714018,-0.003713,-0.000046,-0.003791
39.744137,-0.002775,-0.000090,-0.002837
39.784296,-0.006184,-0.003292,-0.000919
39.814415,-0.007764,-0.003455,0.000158
39.844534,0.003804,0.001838,-0.007760
39.884693,-0.001970,-0.004646,0.000566
39.914812,0.000414,-0.000813,0.003922
39.944931,-0.001099,0.002447,0.003439
39.975050,-0.001542,0.000287,-0.002429
40.015209,-0.000424,-0.002644,-0.002051
40.045328,-0.005192,-0.005269,0.000913
40.075447,0.000657,-0.000101,-0.003178
40.115606,-0.000364,-0.004565,-0.004270
40.145725,-0.001778,-0.001667,-0.001923
40.175844,0.003367,0.001399,0.000405
40.216002,-0.001363,-0.002415,0.000416
40.246121,-0.002701,-0.005003,-0.000688
40.276240,0.002332,-0.000021,-0.002157
40.316400,-0.000906,-0.002578,0.001390
40.346519,-0.000831,-0.002400,-0.001740
40.376639,0.001101,-0.004382,-0.002361
40.416797,-0.002974,-0.000861,-0.000049
40.446917,-0.001939,-0.002129,0.001499
40.477036,-0.000718,-0.002170,-0.000468
40.517193,-0.003686,-0.002630,0.000156
40.547313,-0.001492,-0.002987,-0.001513
40.577432,0.000890,-0.003998,0.001420
40.617592,-0.002300,0.001205,-0.002556
40.647711,-0.004507,-0.002674,-0.000168
40.677830,-0.000094,0.000966,-0.000706
40.717989,-0.001727,0.000517,-0.006565
40.748108,-0.002206,-0.002500,0.001119
40.778226,-0.000309,-0.000860,0.001365
40.808345,-0.002467,0.000492,0.000355
40.848504,0.000687,-0.006438,-0.001533
40.878624,-0.002760,-0.002698,0.001044
40.908743,-0.001872,-0.004543,0.001901
40.948902,0.001245,-0.005715,-0.003656
40.979021,0.000439,-0.002622,-0.003365
41.009140,0.002036,-0.001939,-0.001353
41.049298,0.003204,-0.001773,-0.003570
41.079417,-0.000071,-0.004296,-0.003938
41.109536,-0.003304,-0.003888,-0.003690
41.149695,0.003607,0.000764,0.000827
41.179814,-0.007795,-0.000036,0.000446
41.209933,-0.004115,-0.004552,-0.000932
41.250092,0.001304,-0.000508,-0.002300
41.280211,-0.001023,-0.003580,-0.000818
41.310330,-0.004555,-0.002291,-0.000086
41.350489,0.000502,-0.001725,-0.000178
41.380608,-0.003812,-0.002177,-0.001296
41.410727,-0.001984,-0.000192,0.000078
41.450886,-0.001816,-0.006571,-0.002967
41.481005,0.001990,-0.002985,-0.004123
41.511125,0.001602,-0.002504,-0.005596
41.551283,-0.008579,-0.000761,-0.000229
41.581403,0.002406,0.000285,-0.004306
41.611522,0.000431,-0.002437,-0.007392
41.641641,0.001509,0.001036,-0.003319
41.681800,-0.001967,-0.000899,0.005433
41.711919,-0.004214,-0.001349,0.000190
41.742038,-0.007119,-0.003223,-0.002405
41.782197,-0.003163,-0.002392,0.000039
41.812316,0.002578,-0.000860,-0.000051
41.842435,0.000102,-0.001550,-0.000330
41.882594,-0.000952,-0.003254,-0.000691
41.912713,0.004384,-0.000742,-0.001559
41.942832,0.005195,-0.000205,-0.002235
41.982991,-0.003421,0.001564,-0.003156
42.013110,-0.006978,-0.004751,-0.004630
42.043229,-0.007264,-0.003865,-0.000108
42.083388,-0.004129,-0.002153,0.000691
42.113508,-0.000848,-0.000894,-0.004632
42.143627,0.000936,-0.005457,-0.003108
42.183786,-0.002572,-0.001432,-0.002807
42.213905,-0.002142,0.000442,-0.001056
42.244024,0.006849,-0.003148,-0.004106
42.284183,-0.001318,0.000083,-0.003039
42.314302,-0.007997,-0.003724,-0.000818
42.344421,-0.009546,-0.004521,-0.000749
42.384580,-0.008339,-0.002321,-0.001574
42.414699,-0.002695,-0.003812,-0.003025
42.444818,-0.003573,-0.004761,-0.002570
42.474938,-0.002627,-0.000236,-0.000032
42.515096,0.005314,0.001320,-0.006591
42.545216,0.000945,-0.001933,-0.003419
42.575335,-0.003374,-0.002030,0.000016
42.615493,0.000298,0.000159,-0.005385
42.645613,-0.005320,-0.004560,-0.006822
42.675732,-0.009306,0.000154,-0.000361
42.715891,-0.005590,-0.005035,-0.002290
42.746010,-0.005759,-0.000077,-0.004437
42.776129,-0.003345,-0.005059,-0.004683
42.816288,0.001769,0.000418,-0.004337
42.846407,0.000624,0.001617,-0.004815
42.876526,0.002437,-0.005437,-0.004096
42.916685,-0.007667,-0.003617,-0.004961
42.946804,-0.000036,0.000242,-0.005339
42.976923,-0.007318,-0.001759,-0.003975
43.017082,-0.008220,-0.000023,-0.002543
43.047201,-0.004920,-0.001040,-0.004049
43.077320,-0.003934,-0.003335,-0.003209
43.117479,-0.001616,-0.000183,-0.004390
43.147598,-0.004375,-0.004409,-0.000680
43.177717,-0.005686,-0.001281,-0.002965
43.217876,-0.006365,0.000076,-0.004214
43.247995,-0.007807,-0.003861,-0.005800
43.278114,-0.005602,-0.004229,-0.004437
43.308233,0.003857,-0.000173,-0.008458
43.348392,-0.007113,0.003187,-0.001856
43.378511,-0.004194,0.000775,0.001470
43.408630,-0.009798,-0.001282,-0.002108
43.448789,0.000510,-0.002502,-0.004794
43.478908,0.001761,-0.002674,-0.000462
43.509027,-0.002642,-0.002569,0.001691
43.549186,-0.006798,-0.003929,-0.001243
43.579305,0.000123,-0.003055,-0.002836
43.609425,0.010426,-0.002069,-0.003444
43.649583,0.000642,-0.003061,0.001487
43.679703,-0.004188,0.000151,0.006329
43.709822,-0.003519,-0.001761,0.000488
43.749980,0.001243,-0.003364,-0.002092
43.780100,-0.000793,-0.002968,0.001209
43.810219,-0.003341,-0.004118,0.004238
43.850378,-0.002525,-0.005740,-0.002437
43.880497,0.000935,-0.000383,-0.003971
43.910616,-0.000753,-0.003043,-0.000268
43.950775,0.000770,-0.001536,0.001831
43.980894,-0.001379,0.000215,-0.001500
44.011013,0.003309,-0.001317,-0.001863
44.051172,-0.001058,-0.000757,-0.001579
44.081291,0.005345,-0.003392,-0.006467
44.111410,0.001834,0.003640,-0.009917
44.141529,-0.000876,-0.001699,0.002550
44.181688,-0.003272,0.000477,0.002396
44.211807,-0.000771,-0.005394,-0.003532
44.241926,0.000534,-0.001640,-0.003339
44.282085,-0.000433,-0.006096,0.000401
44.312204,-0.003527,-0.000871,0.003574
44.342323,-0.000694,0.000688,-0.000004
44.382482,0.001038,-0.005945,-0.003744
44.412601,0.008603,0.000443,-0.004127
44.442720,0.001891,-0.003981,-0.004312
44.482879,-0.002207,-0.000858,0.000778
44.512998,-0.004359,0.000604,-0.000762
44.543118,-0.001469,-0.002015,-0.002397
44.583276,0.001198,-0.003685,-0.003004
44.613395,-0.003032,-0.004702,-0.001310
44.643515,0.000671,0.001302,0.000987
44.683673,0.002314,-0.002059,0.001431
44.713793,0.001268,-0.001152,0.001206
44.743912,-0.004232,-0.002196,-0.002749
44.784071,-0.002260,-0.000401,-0.003159
44.814190,0.001785,-0.002192,-0.002915
44.844309,-0.002759,-0.001184,-0.001145
44.884468,0.001581,-0.002615,-0.001771
44.914587,-0.000364,0.000095,-0.008395
44.944706,0.001379,0.002447,-0.002116
44.974825,-0.004028,-0.006933,0.004014
45.014984,-0.002037,0.000499,0.001282
45.045103,-0.000556,-0.001174,-0.000949
45.075222,-0.005272,-0.003833,-0.000500
45.115381,0.001096,-0.005127,0.002586
45.145500,0.002939,-0.001859,0.000003
45.175619,-0.002226,-0.000406,0.000530
45.215778,-0.002534,-0.001325,-0.003283
45.245897,0.002112,-0.003558,-0.005657
45.276016,0.004043,-0.003094,-0.005533
45.316175,-0.006913,-0.004931,-0.003548
45.346294,-0.010657,-0.000395,0.000235
45.376413,0.000648,0.000315,-0.002911
45.416572,-0.000666,-0.004491,-0.003723
45.446691,-0.001059,-0.000612,-0.002326
45.476810,0.002945,-0.002541,-0.000781
45.516969,-0.002045,-0.004028,0.000757
45.547088,-0.001276,-0.004766,-0.002689
45.577208,-0.001145,-0.002461,-0.001838
45.617366,-0.007023,-0.002091,-0.002192
45.647486,-0.006652,-0.004213,-0.000889
45.677605,-0.001861,-0.002549,-0.001862
45.717763,-0.001719,-0.001698,-0.003563
45.756633,0.001594,-0.001459,0.000132
45.786752,0.000357,0.000405,-0.006732
45.826911,0.003423,0.001199,-0.002473
45.857030,0.002843,-0.003013,0.003104
45.887149,-0.002287,-0.003217,-0.002877
45.917268,-0.004970,-0.000994,-0.000190
45.957427,-0.005369,-0.002536,0.000561
45.987546,-0.004242,-0.004978,0.006393
46.017665,-0.001625,-0.004644,0.000445
46.057824,-0.002657,-0.000577,-0.000997
46.087943,-0.003498,-0.003277,-0.000603
46.118062,0.006361,0.000407,-0.008273
46.158221,-0.002050,-0.000656,-0.000910
46.188340,-0.011081,-0.000979,-0.001381
46.218459,-0.006813,-0.002027,-0.001715
46.258618,-0.001117,-0.001030,-0.001090
46.288737,-0.002497,-0.005475,-0.002130
46.318856,-0.005894,0.000292,-0.003004
46.359015,-0.005646,-0.003576,-0.000976
46.389144,-0.001596,-0.003229,-0.002973
46.419263,0.001036,-0.000972,-0.001374
46.449383,-0.002174,-0.002166,-0.002917
46.489541,-0.005883,-0.002335,-0.000619
46.519660,-0.001783,-0.004154,-0.005643
46.549780,-0.004022,-0.004769,-0.003297
46.589938,-0.009196,-0.002183,-0.001738
46.620058,-0.003491,0.000283,-0.005760
46.650177,-0.009483,-0.003140,-0.002335
46.690336,0.008487,-0.003675,-0.005809
46.720455,-0.001048,0.005333,-0.006065
46.750574,-0.009978,-0.004441,0.003772
46.790733,-0.002639,0.002345,0.000868
46.820852,-0.003344,-0.001850,-0.002986
46.850971,-0.001448,-0.000184,-0.005194
46.881090,-0.000729,-0.002026,-0.001209
46.921249,-0.004381,-0.003063,0.002306
46.951368,-0.000806,-0.002026,-0.002962
46.981487,-0.007763,-0.003393,0.000156
47.021646,0.001446,-0.002442,0.000425
47.051765,-0.002180,-0.002765,-0.006478
47.081884,-0.009167,-0.001056,-0.003846
47.122043,-0.007019,0.001117,-0.000082
47.152162,-0.008094,0.000221,-0.003525
47.182281,-0.003011,-0.001296,-0.005938
47.222440,-0.007840,-0.001905,-0.006081
47.252559,-0.009805,-0.001502,-0.001052
47.282679,-0.005280,-0.001127,-0.004373
47.322837,-0.003369,-0.001374,-0.006738
47.352957,-0.002137,-0.003520,-0.003863
47.383076,-0.007733,0.000116,-0.003659
47.423235,-0.007682,-0.002794,-0.000746
47.453354,-0.007620,-0.003797,0.002603
47.483473,-0.001557,-0.002575,-0.001027
47.523632,0.007445,0.003419,-0.002151
47.553751,-0.003982,0.001139,-0.001005
47.583870,-0.000232,-0.002541,0.003473
47.624029,0.008241,-0.002539,-0.001940
47.654148,0.000463,-0.001766,-0.000789
47.684267,-0.005020,-0.003106,-0.000301
47.714386,-0.002578,-0.005866,0.004361
47.754545,0.001655,-0.003064,-0.000716
47.784664,0.003550,-0.003851,0.000225
47.814783,0.004858,-0.001900,0.001085
47.854942,0.003507,-0.000801,0.001330
47.885061,0.000740,-0.000749,-0.002397
47.915180,-0.001548,-0.002766,-0.002543
47.955339,-0.000557,0.000462,-0.003563
47.985458,-0.005608,-0.003508,-0.003569
48.015578,-0.000708,-0.005194,-0.000371
48.055736,-0.001519,-0.001065,0.000535
48.085855,-0.002496,-0.000164,0.001475
48.115975,0.001092,0.000185,-0.000186
48.156134,0.000843,-0.001890,0.001437
48.186253,-0.000601,-0.003002,-0.002181
48.216372,-0.000453,-0.006825,-0.001754
48.256531,0.002011,0.001219,-0.002249
48.286650,-0.010687,-0.003041,0.000884
48.316769,0.006496,-0.001637,0.000852
48.356928,0.006202,0.001600,-0.008104
48.387047,-0.006583,-0.001445,0.003353
48.417166,-0.000739,-0.001367,0.003078
48.457325,-0.003776,-0.001670,-0.000815
48.487444,0.000492,-0.001020,-0.002075
48.517563,-0.002123,-0.004482,-0.000722
48.557722,-0.002171,-0.004987,0.001482
48.587841,0.000885,-0.001565,-0.003525
48.617960,-0.000198,-0.004076,-0.002257
48.648079,0.006655,0.001907,-0.003531
48.688238,-0.002007,-0.002148,-0.000196
48.718358,-0.001234,0.000006,-0.000940
48.748477,-0.005527,0.001534,-0.001560
48.788635,-0.001111,0.000221,-0.000771
48.818755,-0.003126,-0.001387,-0.000676
48.848874,-0.002857,-0.010654,-0.000670
48.889033,0.001622,-0.000474,-0.001593
48.919152,-0.002811,-0.000696,0.000881
48.949271,-0.001426,-0.001591,0.000403
48.989430,0.000981,-0.001295,-0.002857
49.019549,-0.004265,-0.000573,-0.001961
49.049668,-0.001075,0.001970,-0.000474
49.089827,-0.001600,-0.004095,-0.001538
49.119949,0.000632,-0.003827,-0.007124
49.150068,-0.006252,-0.002691,-0.001113
49.190227,0.004641,-0.000405,0.000245
49.220346,0.004936,-0.001345,-0.005433
49.250465,-0.000738,0.004114,-0.002395
49.290624,-0.001397,-0.004201,0.004647
49.320743,-0.002601,0.000391,-0.002281
49.350863,-0.003577,-0.003233,-0.005829
49.380982,-0.006761,-0.006526,0.001323
49.421140,-0.006333,-0.004618,0.004396
49.451260,0.004033,-0.000048,-0.001116
49.481379,0.003069,-0.001264,-0.003821
49.521538,-0.001660,-0.005484,-0.001235
49.551657,0.003594,-0.002348,-0.004110
49.581776,-0.001484,-0.002099,-0.000875
49.621935,-0.007144,0.001816,-0.002319
49.652054,-0.008633,-0.003423,-0.003335
49.682173,-0.006105,0.000578,-0.001515
49.722332,0.001167,-0.006841,-0.003697
49.752451,0.004151,-0.001998,-0.001696
49.792600,-0.005488,-0.002709,-0.000116
49.822719,-0.000922,-0.003259,-0.003531
49.852838,-0.000348,-0.000749,-0.002478
49.892997,0.002492,-0.003959,-0.001701
49.923116,-0.001318,-0.002645,-0.004118
49.953235,-0.004968,-0.002889,-0.003140
49.993394,-0.003253,-0.000972,-0.002095
50.023513,-0.002645,-0.002317,-0.004503
50.053633,0.000287,-0.002396,-0.000819
50.093791,0.008050,0.000214,-0.008384
50.123908,-0.000511,0.001831,-0.005727
50.154027,0.001415,-0.004491,0.004720
50.184146,0.001161,-0.001094,-0.000061
50.224305,-0.005629,-0.004453,-0.003544
50.254424,-0.005204,-0.004148,-0.002251
50.284543,-0.008173,-0.003665,0.002730
50.324702,-0.008947,-0.002252,0.002139
50.354821,-0.001149,-0.005552,-0.005747
50.384965,-0.006025,-0.004463,-0.003286
50.415084,0.002052,0.001944,-0.004359
50.445203,-0.000883,-0.001365,-0.003381
50.485362,-0.004394,-0.004646,-0.003219
50.515481,-0.006654,0.000073,-0.006679
50.545601,-0.004469,-0.001332,-0.003764
50.585759,-0.008329,-0.004193,-0.001660
50.615879,-0.003261,-0.004708,-0.008245
50.645998,0.001751,-0.001472,-0.005034
50.686157,-0.008528,0.000444,-0.000368
50.716276,-0.006037,-0.003595,-0.003170
50.746395,0.003163,-0.002720,-0.003279
50.786554,-0.008190,-0.002964,-0.003258
50.816673,-0.008861,-0.000879,-0.002556
50.846792,-0.008787,-0.003103,-0.003736
50.886951,-0.009155,0.000436,-0.005416
50.917070,-0.006172,-0.003222,-0.003969
50.947189,-0.000022,0.001904,-0.008725
50.977308,-0.011865,0.001601,-0.005763
51.017467,-0.008659,0.000424,-0.000127
51.047586,-0.008110,-0.002618,-0.003361
51.077706,-0.007053,-0.003141,-0.007838
51.117864,-0.010430,-0.002547,-0.001467
51.147984,-0.010055,-0.004763,0.001146
51.178103,-0.000792,-0.003197,-0.000685
51.218262,-0.004024,-0.002123,-0.004451
51.248381,-0.007706,0.000002,-0.002495
51.278500,0.000275,0.002530,-0.003998
51.318659,0.006581,-0.002442,-0.004276
51.348778,0.007328,-0.002454,-0.004807
51.378897,0.007025,-0.005368,-0.004833
51.419056,0.001049,0.002062,-0.001258
51.449175,-0.006213,0.004471,0.001048
51.479294,-0.021971,0.001714,0.002365
51.519453,-0.011600,-0.001826,-0.004623
51.549572,-0.001776,-0.002552,-0.005293
51.579692,-0.010741,-0.006422,-0.001516
51.619850,-0.001173,0.000516,-0.004089
51.649970,-0.001400,0.002333,-0.004321
51.680089,-0.000986,-0.000625,-0.003122
51.720248,0.009349,0.001415,-0.006529
51.750367,-0.002300,0.001528,-0.004637
51.780486,-0.004198,-0.002391,0.001056
51.810605,-0.007518,-0.001927,0.001377
51.850764,-0.007119,-0.002180,0.000463
51.880883,-0.001911,-0.003976,0.005520
51.911002,0.001443,-0.001906,0.007077
51.951161,0.008731,-0.003422,0.003936
51.981280,0.010301,-0.005458,-0.000177
52.011399,0.012222,-0.000758,-0.003724
52.051558,0.001660,0.002492,0.001370
52.081677,-0.007244,-0.003698,0.004815
52.111797,-0.003148,-0.003014,-0.001204
52.151955,0.006020,-0.003918,-0.003468
52.182075,-0.001497,-0.001105,0.000644
52.212194,-0.000967,0.001707,0.001769
52.252353,0.003843,-0.001783,-0.000623
52.282472,0.002760,-0.000310,-0.001301
52.312591,0.009869,0.001786,-0.001667
52.352750,0.009509,-0.000241,-0.004579
52.382869,-0.005487,-0.005751,-0.002528
52.412988,0.003041,-0.002670,-0.001456
52.453147,0.006551,0.002062,-0.006182
52.483266,-0.010752,-0.001148,-0.002251
52.513385,-0.009873,-0.005263,0.002185
52.553544,0.001325,-0.001177,-0.006018
52.583663,-0.000607,0.000181,-0.001630
52.613783,0.000308,0.001176,0.000984
52.653941,0.003505,-0.006851,-0.002134
52.684061,0.014430,-0.000432,-0.005859
52.714180,0.006452,0.002198,0.000423
52.744299,-0.001450,-0.001704,-0.000316
52.784458,0.001267,-0.005929,-0.002506
52.814577,-0.002310,-0.005408,-0.005329
52.844696,-0.007306,-0.001816,-0.002298
52.884855,-0.008076,0.001574,0.002089
52.914974,-0.005412,-0.003461,0.000753
52.945093,-0.001212,-0.002886,-0.001378
52.985252,0.012106,0.000131,-0.005841
53.015371,0.004664,0.000136,0.000170
53.045491,0.005131,-0.001896,-0.002265
53.085649,0.002454,0.000335,0.001344
53.115768,-0.005392,-0.006145,-0.001810
53.145887,-0.011169,0.000732,-0.003261
53.186046,-0.004573,-0.006175,0.000264
53.216165,0.008939,-0.000709,-0.006658
53.246284,0.002206,0.004373,-0.006130
53.286443,0.002139,-0.003418,0.002607
53.316562,0.005714,0.003713,0.001231
53.346681,0.002194,-0.000790,-0.003098
53.386840,-0.004352,-0.004524,-0.000737
53.416959,0.000643,-0.003163,0.001010
53.447078,-0.006652,-0.003436,0.003320
53.487237,-0.000693,-0.002105,0.000638
53.517356,-0.005364,-0.005117,-0.000700
53.547476,0.004612,0.003167,-0.000611
53.577595,-0.002217,-0.004564,-0.001645
53.617754,0.004627,0.000568,-0.003473
53.647873,-0.002319,-0.001427,-0.001504
53.677992,-0.004530,-0.006255,-0.001123
53.718151,-0.007251,0.003641,-0.003869
53.759540,-0.004525,-0.002125,-0.003479
53.789659,0.000635,-0.007267,-0.000826
53.819778,0.001829,-0.005840,-0.004610
53.859937,-0.000460,0.000886,0.000648
53.890056,0.000730,0.000714,-0.001120
53.920175,0.001418,-0.003391,-0.001082
53.960334,-0.000335,-0.004491,-0.003516
53.990453,-0.004237,-0.003843,-0.001282
54.020573,-0.004753,-0.001743,-0.001189
54.050692,-0.004550,-0.000215,-0.000548
54.090851,0.000109,-0.003324,-0.001503
54.120971,0.000010,0.001896,-0.005460
54.151090,-0.005195,0.004741,-0.006172
54.191249,-0.003886,-0.004940,0.003320
54.221368,0.008475,0.001872,-0.001024
54.251487,-0.002133,-0.001831,-0.002660
54.291646,-0.000228,0.000457,-0.001513
54.321765,-0.004732,-0.006068,0.003756
54.351884,-0.001475,-0.005910,0.003465
54.392048,-0.001403,-0.000762,-0.002338
54.422167,-0.005251,-0.003630,-0.000748
54.452287,-0.006636,0.000073,-0.002390
54.482406,-0.004186,-0.002294,-0.000891
54.522565,0.001095,-0.001497,-0.005981
54.552684,0.002003,0.000600,-0.002281
54.582803,0.001076,0.000840,0.000663
54.622962,-0.001677,-0.004577,-0.003214
54.653081,0.001060,-0.001069,-0.004816
54.683200,-0.004523,-0.001507,0.000224
54.723359,-0.005160,-0.003727,-0.001532
54.753478,0.001552,-0.004683,-0.003749
54.783597,-0.001670,-0.003161,-0.003644
54.823756,-0.006396,-0.002279,-0.000562
54.853875,-0.003032,-0.000265,-0.004290
54.883995,-0.000567,-0.001298,-0.001148
54.924153,-0.002489,-0.001160,-0.004638
54.954273,-0.004651,-0.003859,-0.006096
54.984392,0.001234,0.000415,-0.005732
55.024551,0.003770,0.000696,-0.006678
55.054670,-0.009941,0.003988,-0.000112
55.084789,-0.005303,-0.004603,0.005794
55.124947,-0.002831,-0.003385,-0.001492
55.155066,-0.006439,-0.005209,-0.004109
55.185185,-0.006689,-0.006759,-0.000536
55.225344,-0.002486,-0.000773,0.002033
55.255463,-0.005008,-0.004874,-0.000954
55.285583,-0.013764,-0.007364,-0.001709
55.315702,-0.009460,-0.002444,-0.005597
55.355861,0.000568,0.000422,-0.002250
55.385980,-0.000529,-0.004169,-0.005688
55.416099,0.004110,-0.003425,-0.007283
55.456258,0.001797,0.000925,-0.003746
55.486377,0.001277,-0.001687,-0.003038
55.516496,0.005102,-0.001358,-0.004781
55.556655,-0.001061,-0.002749,-0.004816
55.586774,-0.001680,-0.003863,-0.005108
55.616893,-0.004333,-0.002409,-0.002646
55.657052,-0.002639,-0.003411,-0.000602
55.687171,-0.001936,-0.002172,-0.003532
55.717291,-0.004648,-0.002365,-0.003397
55.757450,-0.008370,0.000865,0.002609
55.787569,-0.005789,-0.001028,-0.002648
55.817688,-0.000336,-0.006901,-0.006256
55.857847,-0.002166,-0.005300,-0.000573
55.887966,0.008877,0.005160,-0.006089
55.918085,-0.005355,-0.000633,-0.001335
55.958244,0.003586,-0.000925,0.000729
55.988363,0.001326,-0.000525,-0.004201
56.018482,-0.006092,-0.002398,-0.000694
56.048601,-0.005968,-0.002044,-0.002566
56.088760,-0.010157,-0.008817,0.002306
56.118885,-0.001387,-0.004470,-0.000807
56.149004,-0.006775,-0.003708,-0.002007
56.189162,-0.003949,-0.001387,-0.000267
56.219281,-0.002391,0.002470,-0.000816
56.249400,-0.005941,0.001137,-0.002137
56.289560,0.000579,0.000081,-0.005087
56.319679,-0.001415,-0.000274,-0.004747
56.349798,-0.007857,-0.000871,-0.001386
56.389956,0.000274,-0.004819,-0.003676
56.420075,0.001503,-0.003653,-0.001865
56.450194,0.000713,-0.002283,0.000386
56.490354,0.004307,-0.001465,0.000251
56.520474,0.006216,0.002680,-0.002496
56.550593,-0.003494,-0.002537,-0.003145
56.590752,-0.006036,-0.003128,-0.001658
56.620871,0.007788,-0.001831,-0.003127
56.650990,0.003726,-0.001006,-0.006045
56.691148,-0.004055,-0.000743,0.004195
56.721267,-0.002188,0.001819,0.003896
56.751386,-0.002892,0.000177,-0.001445
56.791546,-0.001231,-0.004665,-0.001658
56.821665,-0.002331,-0.001551,0.001583
56.851784,-0.005994,-0.002851,0.005276
56.891943,0.003581,-0.000822,-0.004380
56.922062,-0.005356,-0.005270,-0.003805
56.952181,-0.003505,-0.007412,0.000908
56.982300,-0.000802,-0.000691,-0.000381
57.022460,-0.015405,-0.002180,0.002434
57.052579,-0.009929,0.003175,-0.001175
57.082698,-0.003604,-0.002505,-0.000328
57.122857,0.017575,-0.002867,-0.004269
57.152976,0.026175,0.002605,-0.007053
57.183095,0.006964,0.002493,-0.000310
57.223253,0.000899,-0.001237,-0.001804
57.253372,0.007115,-0.000513,-0.002582
57.283492,-0.003625,-0.000792,-0.002077
57.323651,-0.004070,-0.003655,-0.001495
57.353771,-0.008851,-0.003929,-0.004290
57.383890,-0.012561,-0.003419,-0.001841
57.424049,-0.001033,-0.001185,-0.005233
57.454168,-0.006407,0.004756,-0.003004
57.484287,-0.001785,-0.004585,0.003892
57.524445,-0.000281,-0.000577,-0.000907
57.554564,-0.003287,-0.004641,-0.001195
57.584683,-0.002245,0.000674,-0.002347
57.624843,-0.008266,-0.008025,0.001356
57.654962,0.002574,-0.001435,-0.001792
57.685082,-0.001450,-0.003501,-0.001898
57.725239,-0.003756,0.001538,-0.000315
57.755359,0.002582,-0.000107,-0.004592
57.785473,0.005308,-0.003220,-0.004782
57.825632,-0.000851,-0.004460,-0.000503
57.855751,-0.004469,0.001587,-0.003291
57.885871,-0.005342,-0.001816,0.000964
57.926030,0.000252,-0.002295,-0.001340
57.956149,0.001614,-0.003328,-0.003151
57.986268,-0.005007,-0.000104,-0.001744
58.026426,-0.000862,-0.000851,0.002167
58.056545,0.001247,-0.000703,0.001938
58.086665,0.000985,-0.003916,-0.001198
58.126820,-0.001903,-0.002493,-0.002188
58.156939,-0.006744,-0.000829,0.003159
58.187058,0.003080,-0.001873,-0.005306
58.217177,-0.002531,0.001602,-0.005422
58.257336,0.000524,-0.006376,0.005522
58.287455,-0.003597,0.001027,0.002292
58.317574,0.000240,-0.003742,-0.000768
58.357733,-0.003455,-0.002877,0.000891
58.387867,-0.008311,-0.004163,0.003735
58.417986,-0.001966,-0.004998,-0.000339
58.448106,0.003869,-0.004571,-0.003388
58.488265,0.000258,-0.001000,-0.002872
58.518384,0.004515,0.002323,-0.001139
58.548503,-0.004478,-0.005301,0.000133
58.588662,0.002386,-0.002092,-0.004989
58.618781,-0.000383,-0.003929,-0.004799
58.648900,-0.004803,-0.001472,-0.002493
58.689059,-0.007640,-0.005128,-0.000074
58.719178,0.003830,-0.003303,-0.004588
58.749297,-0.001942,-0.004383,-0.003577
58.779417,-0.004066,-0.002124,-0.002769
58.819575,0.000780,-0.000026,-0.001379
58.849695,0.000255,-0.000902,-0.003207
58.879814,0.000645,-0.002405,-0.004144
58.919973,-0.008274,-0.005727,-0.003445
58.950092,-0.007681,-0.000182,-0.002650
58.980211,-0.005628,-0.001487,-0.001620
59.020370,0.004134,-0.001116,-0.006091
59.050489,-0.002903,0.003900,-0.006350
59.080608,-0.000688,-0.005343,0.002659
59.120768,-0.003892,-0.000275,-0.001894
59.150887,-0.000050,-0.001415,-0.005272
59.181007,-0.004286,-0.001754,-0.001499
59.221166,-0.003238,-0.004522,0.000621
59.251285,-0.003780,-0.001685,-0.002425
59.281404,0.001625,-0.004006,-0.004818
59.321563,0.003892,-0.002874,-0.001199
59.351682,0.004093,0.001337,-0.001544
59.381801,-0.002303,-0.004667,-0.002330
59.421960,-0.004897,-0.000902,-0.004834
59.452079,-0.002521,-0.004683,-0.003481
59.482198,-0.002611,-0.004964,-0.005463
59.522357,0.001413,-0.003312,-0.003381
59.552477,-0.010360,-0.002945,-0.002374
59.582596,-0.000932,-0.000863,-0.000341
59.622755,-0.000564,-0.001788,-0.001071
59.652874,-0.000179,-0.001345,-0.002044
59.682993,-0.002297,-0.000087,-0.001078
59.713112,-0.005136,0.002399,-0.000143
59.753271,0.002036,-0.005632,-0.003542
59.783390,-0.007382,-0.001745,-0.003898
59.813510,-0.007395,-0.000830,-0.003651
59.853668,0.001647,-0.001275,-0.003830
59.883788,0.010539,0.001448,-0.007355
59.913907,-0.003240,0.000140,-0.001277
59.954066,-0.004021,0.001506,-0.000451
59.984185,-0.000528,0.001706,-0.007470
60.014304,-0.004689,0.000219,-0.005314
60.054463,-0.008409,-0.006854,0.003901
60.084582,-0.010560,-0.003020,0.000990
60.114701,-0.002575,-0.005810,-0.002701
60.154861,-0.008510,-0.005589,-0.002969
60.184980,-0.002120,0.001455,-0.003058
60.215100,0.004003,0.002205,-0.002969
60.255259,-0.002321,-0.000971,-0.001097
60.285378,-0.004778,-0.000154,-0.003138
60.315497,-0.003595,0.004213,-0.003884
60.355656,-0.004522,-0.001677,-0.002477
60.385775,-0.006129,-0.005049,-0.001633
60.415894,-0.003895,-0.001116,-0.002239
60.456053,-0.005889,-0.003222,0.001062
60.486172,-0.003237,0.001077,0.000415
60.516292,-0.000549,-0.003398,-0.002012
60.546411,0.000418,-0.002170,-0.004117
60.586570,-0.009144,-0.001589,-0.003421
60.616689,-0.009750,-0.003743,0.000154
60.646808,0.000549,-0.003423,-0.005723
60.686967,0.000804,-0.001560,-0.006915
60.717086,-0.004432,-0.006660,0.000948
60.747205,-0.003993,0.000789,-0.001348
60.787364,-0.005068,-0.002682,-0.002791
60.817483,-0.007286,-0.001889,-0.000615
60.847603,-0.002316,-0.004063,-0.000907
60.887762,-0.001285,-0.001669,-0.005495
60.917881,-0.005073,-0.005021,-0.006186
60.948000,-0.003350,-0.002145,0.000201
60.988159,0.001767,0.001218,-0.000998
61.018278,-0.004711,-0.000904,-0.006202
61.048397,-0.004965,-0.002197,0.000648
61.088556,-0.003425,0.001589,-0.001385
61.118674,0.000080,-0.002855,-0.002478
61.148793,0.006336,-0.005421,-0.003413
61.188952,-0.005117,-0.003620,-0.001578
61.219072,0.000707,0.000890,0.001332
61.249191,0.002430,-0.001958,-0.000415
61.289350,-0.000147,0.000440,-0.001994
61.319469,-0.001431,-0.001850,-0.000238
61.349588,-0.003840,-0.000631,0.000864
61.379707,-0.005578,-0.005603,-0.001842
61.419866,0.011159,0.001059,-0.007963
61.449985,0.000131,0.001048,-0.004374
61.480105,-0.001810,-0.001413,0.003136
61.520263,0.002623,-0.000523,0.000423
61.550383,-0.001737,-0.002291,-0.001007
61.580502,-0.001627,-0.002554,-0.001488
61.620661,-0.000170,-0.004443,-0.000554
61.650780,-0.003008,-0.003625,-0.000099
61.680899,-0.000817,-0.003301,-0.004607
61.721058,0.000848,-0.000875,-0.000113
61.751177,0.002475,0.001583,-0.001551
61.791321,-0.000473,-0.002309,-0.002063
61.821440,-0.005388,-0.003712,-0.002050
61.851560,0.003005,0.001862,-0.001201
61.891719,-0.003049,-0.004526,-0.000555
61.921838,-0.000767,-0.005579,-0.000097
61.951957,0.002413,0.000109,-0.001795
61.992116,-0.000748,-0.003437,-0.000819
62.022235,-0.001657,-0.002361,0.001107
62.052354,0.003250,-0.002460,-0.001111
62.092513,0.000507,-0.002586,-0.002392
62.122632,-0.004147,-0.002280,-0.002105
62.152751,0.000256,-0.001421,-0.002619
62.192910,-0.006261,-0.002153,0.000070
62.223030,0.004910,-0.002496,-0.003356
62.253149,0.003569,-0.002356,-0.005722
62.293308,-0.005328,-0.000315,0.002680
62.323427,-0.002697,0.000313,0.006601
62.353546,-0.000723,-0.004185,-0.003037
62.383685,0.003361,-0.000627,-0.005723
62.413804,-0.002577,-0.004712,0.001249
62.453963,-0.005757,-0.001793,0.004329
62.484082,-0.002227,-0.002931,0.000409
62.514202,0.003278,-0.004794,-0.002362
62.554361,0.004677,-0.000232,0.001366
62.584480,-0.006932,-0.001080,0.002304
62.614599,-0.008914,-0.007953,0.000842
62.654758,0.006795,-0.003665,-0.004835
62.684877,0.017223,-0.002213,-0.004334
62.714996,-0.002422,-0.001290,0.001813
62.755155,-0.000850,-0.005393,0.002220
62.785274,0.000544,-0.000067,-0.004819
62.815394,0.015902,0.004212,-0.004053
62.845513,-0.000965,0.000171,0.002162
62.885672,-0.005136,-0.003971,0.001316
62.915791,-0.002000,-0.002949,-0.005422
62.945910,0.007662,-0.001738,-0.003920
62.986069,-0.002528,0.000497,-0.004518
63.016188,-0.005308,-0.003084,-0.000605
63.046307,-0.009629,-0.000273,-0.001345
63.086466,0.003574,-0.005025,-0.000150
63.116586,0.019120,0.001960,-0.008805
63.146706,0.002102,0.002414,-0.004922
63.186864,-0.013530,-0.001300,0.002819
63.216983,-0.013274,-0.001553,-0.000055
63.247102,0.004467,-0.000602,-0.003138
63.287262,0.005779,-0.002366,0.004575
63.317381,-0.004588,-0.008683,0.006781
63.347501,-0.004427,-0.005217,0.000109
63.387659,-0.002489,-0.003247,-0.001636
63.417779,-0.007923,-0.009974,-0.001290
63.447898,0.012339,0.006871,-0.002924
63.488056,0.017360,0.007344,-0.005081
63.518175,-0.002741,-0.001966,-0.002823
63.548294,-0.003274,-0.001712,-0.003011
63.588454,0.007574,-0.004614,-0.005145
63.618573,0.006313,-0.004532,-0.006159
63.648693,-0.000406,0.000110,-0.001264
63.678812,-0.003430,-0.003762,0.000170
63.718970,-0.003686,-0.002339,-0.001133
63.749089,-0.010249,0.002024,-0.001032
63.779208,-0.018024,-0.003764,0.001693
63.819368,-0.010462,-0.005146,-0.002219
63.849487,-0.016652,-0.008848,-0.004486
63.879607,-0.000733,-0.009388,-0.002793
63.919765,0.004069,0.002405,-0.005245
63.949885,-0.008719,0.000599,-0.003627
63.980004,-0.001668,0.005099,-0.006521
64.020162,0.005545,-0.002201,-0.002207
64.050281,0.015228,-0.005896,-0.000828
64.080400,0.002556,0.003434,-0.003999
64.120559,-0.015757,-0.005661,-0.000178
64.150678,-0.018342,-0.005604,0.005189
64.180798,-0.013289,-0.003178,0.004771
64.220957,0.000967,0.002633,-0.001192
64.251076,-0.003987,-0.009029,-0.002883
64.281195,0.001126,-0.007845,-0.006332
64.321354,0.004481,-0.000274,-0.005428
64.351473,-0.002402,-0.001512,0.001516
64.381592,-0.005002,-0.000493,-0.004130
64.421751,-0.002619,-0.004100,-0.003855
64.451871,-0.002860,-0.001035,-0.000670
64.481990,-0.006506,-0.000600,-0.003626
64.512109,-0.009355,-0.000621,-0.001468
64.552268,-0.002436,-0.003069,-0.002085
64.582387,-0.001995,-0.002476,-0.003327
64.612506,-0.003982,-0.000581,-0.001723
64.652665,-0.003497,-0.000973,-0.001116
64.682785,0.002235,-0.001301,-0.002869
64.712904,-0.006683,-0.002312,-0.003679
64.753063,-0.013201,-0.005564,-0.004460
64.783182,-0.000481,-0.003229,-0.001951
64.813301,0.003931,0.000930,-0.007448
64.853460,-0.008954,0.000683,0.001382
64.883579,-0.004414,-0.000379,-0.000850
64.913699,-0.004520,0.002469,-0.003438
64.953858,-0.001992,-0.001841,-0.003603
64.983977,-0.004012,-0.003490,-0.000598
65.014096,-0.009425,-0.001161,-0.000916
65.054255,-0.005681,-0.003394,-0.002528
65.084374,-0.003841,-0.005853,-0.003099
65.114494,0.000869,-0.003038,-0.004320
65.154655,-0.004614,-0.000622,0.001610
65.184775,-0.010379,-0.001218,-0.000798
65.214894,-0.003183,0.000629,-0.004678
65.255053,-0.000787,-0.003912,-0.003235
65.285172,0.000732,-0.002957,-0.004733
65.315291,-0.002109,-0.007481,-0.004690
65.345411,0.000804,0.001264,-0.000447
65.385570,-0.001276,0.000211,0.002479
65.415689,0.004924,-0.002638,-0.000619
65.445808,0.006790,-0.004026,-0.003071
65.485967,0.000749,-0.002774,-0.000649
65.516086,-0.002516,0.000381,0.001186
65.546205,-0.001699,-0.000928,-0.003100
65.586364,-0.009143,-0.002255,-0.003347
65.616484,0.000152,0.000759,-0.003378
65.646603,0.000509,0.000831,-0.004961
65.686762,0.004522,-0.000046,0.004058
65.716881,0.002699,0.002329,0.001280
65.747000,-0.001003,0.002512,-0.002908
65.787159,0.005991,-0.005453,-0.003359
65.817279,0.013147,-0.000573,-0.006174
65.847398,0.018808,-0.003246,-0.002533
65.887557,0.008400,-0.001965,-0.000201
65.917676,0.008330,-0.000179,-0.002286
65.947795,0.007567,-0.001668,-0.001563
65.987954,-0.017146,-0.005532,0.002627
66.018073,-0.025814,-0.003465,0.001497
66.048193,-0.015898,-0.004957,-0.000640
66.078312,-0.006095,-0.004179,-0.002459
66.118471,0.001419,-0.002998,0.000888
66.148587,0.006041,-0.006717,-0.004462
66.178706,0.009930,0.003679,-0.002060
66.218865,0.004378,-0.001368,0.000877
66.248984,0.006122,-0.005080,-0.002121
66.279104,0.013685,0.000013,-0.004294
66.319263,-0.006218,-0.003225,-0.000125
66.349382,-0.006351,-0.000128,-0.000983
66.379501,-0.004199,-0.001746,-0.000577
66.419660,-0.005885,-0.004370,0.000107
66.449779,-0.007846,0.000470,0.000330
66.479899,-0.000353,0.000297,-0.002399
66.520058,-0.005689,-0.002113,-0.001213
66.550177,0.008274,0.000151,-0.002868
66.580296,0.003597,0.001741,-0.005453
66.620455,-0.004739,0.000131,0.001129
66.650574,-0.003099,-0.001119,0.002441
66.680693,-0.006299,-0.008823,-0.001731
66.720852,0.001720,-0.002511,-0.002827
66.750972,-0.006418,-0.004422,-0.000002
66.781091,-0.008877,-0.002701,0.005792
66.821250,-0.001381,0.000906,-0.001132
66.851369,0.006317,-0.001933,-0.003940
66.881488,0.007058,-0.002813,-0.003720
66.921647,-0.003100,-0.003648,-0.002058
66.951767,-0.006668,-0.001879,-0.003124
66.981886,0.002502,-0.001636,-0.001737
67.012005,-0.001048,-0.001989,-0.001043
67.052164,-0.003278,-0.002589,0.000566
67.082283,0.000405,-0.001568,-0.004478
67.112402,-0.001047,-0.001708,-0.000536
67.152561,-0.003700,-0.003323,0.001569
67.182681,-0.002272,-0.003852,-0.002110
67.212800,0.000120,-0.002777,-0.000866
67.252959,-0.002264,-0.002123,-0.001222
67.283078,-0.002748,-0.003155,-0.000647
67.313197,-0.006744,-0.001890,-0.000743
67.353356,0.003466,-0.000615,-0.002643
67.383476,0.000836,-0.002842,-0.001706
67.413595,-0.004067,-0.001062,-0.004148
67.453754,-0.006777,-0.000830,-0.002313
67.483873,-0.000130,-0.000009,-0.005587
67.513992,-0.002136,0.003865,-0.003253
67.554151,0.000558,-0.009077,0.003042
67.584270,0.001165,-0.001206,-0.003596
67.614390,0.109886,-0.099241,-0.009469
67.654549,-0.003608,-0.007047,0.009848
67.684668,-0.035691,0.082258,0.004451
67.714787,-0.036697,0.036426,0.006662
