time_tick,gyr_X_value,gyr_Y_value,gyr_Z_value
0.008366,0.082336,-0.109300,0.077062
0.038483,0.081530,-0.070552,0.015933
0.068600,-0.000946,-0.156405,0.010660
0.108756,-0.040284,-0.141315,0.165486
0.138873,0.086063,0.075122,0.181559
0.168990,0.084171,0.241864,0.002345
0.209146,0.200668,0.285878,0.039733
0.239263,0.189889,0.230515,-0.035265
0.269380,0.058682,0.211001,-0.049490
0.309536,0.003189,-0.044298,0.003192
0.339653,-0.001198,-0.031733,0.083378
0.369770,0.104089,-0.016070,0.211614
0.399887,0.121406,-0.094770,0.338446
0.440042,0.500641,-0.068836,0.313926
0.470159,0.770268,-0.082336,0.339422
0.500276,0.834399,-0.013644,0.378214
0.540429,0.571531,0.260398,0.035386
0.570546,0.271784,0.116706,-0.305457
0.600663,0.211477,0.074887,-0.096709
0.640819,0.084321,0.314027,0.567059
0.670936,0.075270,0.196272,0.617637
0.701053,-0.149656,0.189166,0.519876
0.741209,-0.091121,0.267580,-0.311097
0.771326,-0.414542,0.044803,-0.430187
0.801443,-0.210442,0.048124,-0.534500
0.841599,0.298919,0.288527,-0.700207
0.871716,-0.137093,0.091355,-0.518081
0.901833,-0.366098,-0.108702,-0.280319
0.941989,-0.113652,0.034468,-0.059547
0.972106,-0.032870,0.036900,-0.020256
1.002223,0.084844,0.090828,-0.020739
1.042379,0.036081,0.141822,0.008519
1.072496,-0.026476,0.108187,0.022044
1.102612,-0.011301,-0.007907,0.042008
1.142768,-0.032582,0.058591,0.155992
1.172885,0.084312,0.072261,0.243083
1.203002,0.178545,0.049476,0.242658
1.233119,0.186765,0.038585,0.051613
1.273275,0.226135,-0.054594,-0.054342
1.303392,0.131698,0.034466,-0.015678
1.333509,0.243338,0.054194,-0.048769
1.373665,0.217846,-0.046404,-0.104460
1.403782,0.108302,-0.014488,-0.045205
1.433899,0.049201,-0.055664,-0.064730
1.474055,-0.025391,-0.119428,-0.086003
1.504172,0.021602,-0.096889,-0.079804
1.534289,-0.014314,-0.026929,-0.062951
1.574445,-0.053521,-0.043260,0.005323
1.604562,-0.034090,-0.043652,0.006898
1.634679,0.018857,-0.020591,-0.012730
1.674835,0.028337,0.007751,-0.047668
1.704952,0.005540,0.002724,-0.069701
1.735068,0.015284,0.012679,-0.072286
1.775224,0.035693,-0.052618,-0.048104
1.805341,-0.004069,-0.062109,-0.046115
1.835458,-0.065202,-0.056173,-0.003490
1.875614,0.014602,-0.041897,-0.025308
1.905731,-0.041464,-0.004450,0.006108
1.935848,-0.061513,-0.003075,-0.010678
1.976004,-0.001133,0.073210,-0.051947
2.006121,-0.025419,0.053833,-0.021013
2.036238,-0.019663,0.060899,-0.010026
2.076394,0.061107,0.105156,-0.024863
2.106511,-0.001799,0.092557,0.001962
2.136628,-0.081924,-0.005443,0.000934
2.166745,-0.035241,-0.060324,-0.004829
2.206901,0.046416,0.039335,-0.033230
2.237018,0.050605,0.039025,-0.003918
2.267135,0.020034,-0.017066,0.020810
2.307290,-0.010644,0.018437,0.017109
2.337407,-0.029407,0.013297,-0.000582
2.367524,-0.004486,0.033238,-0.018506
2.407680,0.055655,0.070526,-0.000748
2.437797,0.060158,0.087662,0.000664
2.467914,0.078912,0.076543,-0.012607
2.508070,0.054512,0.205401,-0.009782
2.538187,0.043277,0.129983,-0.025056
2.568304,0.044656,0.063805,-0.022854
2.608460,-0.002965,0.130567,0.003345
2.638577,0.009260,0.158661,-0.004801
2.668694,-0.037289,0.220380,0.025557
2.708850,-0.078826,0.137550,0.016381
2.738967,-0.043500,0.125635,0.013357
2.769084,-0.003698,0.057503,0.010116
2.809240,-0.001022,0.100024,0.033262
2.839357,-0.040619,0.084036,0.044504
2.869474,-0.128133,0.071619,0.052941
2.909630,-0.078757,-0.014932,0.022693
2.939747,-0.065952,0.000736,0.058633
2.969863,-0.078842,0.013474,0.028672
2.999980,-0.102385,0.061404,-0.028922
3.040136,-0.090270,0.053286,-0.032324
3.070253,-0.010805,0.083161,-0.052212
3.100370,0.043759,0.063992,-0.089151
3.140526,0.070944,0.009251,-0.051976
3.170643,0.032087,0.019170,-0.025174
3.200760,0.002360,0.018068,-0.022347
3.240916,0.010471,-0.021952,-0.005175
3.271033,0.062060,0.023394,0.004116
3.301150,0.097938,0.046821,-0.010107
3.341306,0.041553,0.025020,-0.019125
3.371423,-0.013991,0.004359,-0.021398
3.401540,-0.055973,-0.008164,0.000836
3.441696,0.011348,0.042935,-0.007579
3.471813,0.026650,0.040331,-0.024843
3.501930,-0.030329,0.008182,-0.021490
3.542085,-0.012869,-0.050451,0.013459
3.572202,0.006876,-0.028268,0.021597
3.602319,-0.026485,-0.050376,-0.000667
3.642475,-0.024487,-0.041886,0.001116
3.672592,0.056008,0.052282,-0.014261
3.702709,0.078216,0.050862,-0.009538
3.742865,0.021073,0.034129,0.011866
3.772982,0.015754,0.028181,0.014260
3.803099,0.032365,0.032524,0.001986
3.833216,0.045835,0.050007,-0.001267
3.873372,0.059504,0.063130,-0.002123
3.903489,0.006061,-0.000376,-0.004526
3.933606,0.018408,0.020413,0.019634
3.973762,0.044038,0.041961,0.028219
4.016398,0.062244,0.042115,0.016938
4.046515,0.071923,0.034878,0.003405
4.076632,0.029151,-0.025616,0.009713
4.116788,-0.012747,-0.010696,0.011654
4.146905,0.023468,0.019647,0.005410
4.177022,0.038993,0.031630,0.008576
4.217178,-0.108422,-0.014510,-0.004095
4.247295,-0.008279,-0.046121,0.022729
4.277412,-0.013603,0.000496,0.042657
4.307529,-0.007692,-0.058603,0.017145
4.347685,-0.030213,-0.046815,0.020936
4.377802,-0.043624,-0.034216,0.027242
4.407919,0.012248,-0.036772,0.038918
4.448074,0.019239,-0.017086,0.029644
4.478191,0.016129,0.006221,0.004734
4.508308,0.014553,0.019969,0.017255
4.548464,0.023676,0.022354,0.007355
4.578581,0.027597,0.032788,0.011609
4.598659,0.035241,0.042981,0.008163
4.638849,0.010416,0.021715,-0.001933
4.668966,0.012785,-0.002396,0.004197
4.699083,-0.008842,-0.016340,0.008774
4.739239,0.026275,0.000142,-0.001886
4.769356,-0.009162,-0.023795,0.003316
4.799473,-0.021143,-0.015881,0.008055
4.839629,-0.003768,-0.006022,-0.000787
4.869746,-0.015080,-0.001208,-0.007753
4.899863,-0.041578,-0.004077,-0.004025
4.940019,0.009114,0.023751,-0.006373
4.970136,0.030363,0.033919,-0.009329
5.000253,0.012487,0.015227,-0.002227
5.040409,-0.023487,-0.024675,0.002471
5.070526,-0.015969,-0.016549,0.003783
5.100643,-0.019650,-0.025636,0.000279
5.140798,-0.039830,-0.033285,0.002528
5.170915,-0.049077,-0.035950,-0.003055
5.201032,-0.021512,-0.006582,-0.011728
5.241188,-0.009011,-0.007123,-0.009447
5.271305,-0.055199,-0.037910,-0.003361
5.301422,-0.072877,-0.027879,-0.009372
5.341578,0.007878,0.009060,-0.014852
5.371695,0.027582,0.005182,-0.009407
5.401812,0.007708,0.010010,0.001560
5.431929,0.000259,-0.013632,-0.001388
5.472085,-0.024476,-0.017228,-0.005720
5.502202,-0.004778,-0.007912,-0.012060
5.532318,0.027595,0.044316,-0.013655
5.572474,-0.012245,-0.018850,-0.011855
5.602591,-0.017261,-0.016749,-0.001084
5.632708,-0.013447,-0.003472,0.000636
5.672864,-0.006574,-0.002685,0.002596
5.702981,0.018728,0.022293,0.003011
5.733098,-0.002103,0.009672,0.001622
5.773254,-0.015789,-0.019422,0.005329
5.803370,0.022290,0.026253,0.000729
5.833487,0.013004,0.014983,-0.009209
5.873643,-0.006725,0.001953,-0.009267
5.903760,-0.025390,-0.008489,-0.013833
5.933877,-0.049005,-0.011032,-0.016379
5.974033,-0.051263,-0.026192,-0.012383
6.004150,0.025222,0.024813,-0.025573
6.034267,0.080587,0.045667,-0.041213
6.074423,0.056155,0.028230,-0.033179
6.104540,0.051997,0.038553,-0.029103
6.134657,0.059101,0.040590,-0.032149
6.174813,-0.009194,0.001737,-0.042376
6.204930,-0.055798,-0.007074,-0.038502
6.235047,0.016245,0.029560,-0.033984
6.265164,0.005242,0.050580,-0.036556
6.305320,-0.026093,0.023736,-0.038710
6.335437,-0.075370,-0.011391,-0.035810
6.365554,-0.105989,-0.039797,-0.033518
6.405710,-0.037041,0.006351,-0.030876
6.435827,-0.042387,-0.015169,-0.032580
6.465944,-0.055639,-0.054074,-0.030152
6.506100,0.002052,0.013165,-0.051233
6.536217,-0.017075,0.078754,-0.063333
6.566334,-0.008788,0.045503,-0.071381
6.606490,-0.051096,0.069090,-0.099767
6.636607,-0.024012,0.112785,-0.094789
6.666724,-0.023574,0.115526,-0.080124
6.706880,-0.063223,0.033262,-0.089913
6.736997,-0.001804,0.047800,-0.057841
6.767114,0.120150,0.033739,-0.025326
6.807270,0.044361,-0.023673,-0.011286
6.837387,-0.108883,-0.142341,-0.008417
6.867504,-0.100879,-0.094561,0.010010
6.907660,-0.001947,0.026570,-0.021769
6.937777,0.027386,0.017804,-0.020749
6.967894,0.015320,0.005632,-0.031268
7.008050,0.125600,0.150698,-0.065890
7.038167,0.195696,0.159933,-0.076671
7.068284,0.209457,0.139768,-0.088984
7.108440,0.094830,0.100123,-0.071284
7.138557,-0.009024,0.065867,-0.066030
7.168674,0.052023,0.062282,-0.070933
7.198791,0.086910,0.109773,-0.081314
7.238946,0.000488,0.056078,-0.098001
7.269063,-0.075154,-0.036453,-0.033032
7.299180,-0.046259,-0.080821,-0.015387
7.339336,-0.044715,-0.001372,-0.035021
7.369453,0.036860,0.056998,-0.043776
7.399570,0.118373,0.045854,-0.029315
7.439726,0.086668,0.002506,-0.029033
7.469843,0.022282,-0.009401,-0.008654
7.499960,-0.009306,-0.036322,-0.003267
7.540115,-0.072639,-0.006312,0.009904
7.570232,-0.083267,-0.021485,0.008881
7.600349,-0.077709,-0.051420,-0.002101
7.640505,-0.034701,-0.033531,0.009511
7.670622,-0.002937,-0.030759,-0.001993
7.700739,0.026601,-0.009950,0.000528
7.740895,0.018424,-0.016336,0.000653
7.771012,0.017437,-0.031269,-0.010252
7.801129,-0.025476,-0.045311,-0.003257
7.841285,-0.017390,-0.018486,0.016137
7.871402,-0.010815,-0.026299,0.008424
7.901519,0.011238,0.009386,0.012063
7.941675,0.068061,0.041050,0.013277
7.971792,0.031474,0.036183,-0.007169
8.016933,-0.043383,-0.026669,-0.006383
8.047050,-0.079742,-0.053766,-0.022815
8.077167,-0.042526,-0.043250,-0.014644
8.117323,-0.027554,-0.030923,0.003235
8.147440,-0.018960,0.010565,-0.017032
8.177557,0.003719,0.008318,-0.018922
8.207674,-0.041082,-0.050459,-0.013626
8.247830,-0.123135,-0.084539,-0.035724
8.277947,-0.092565,-0.042775,-0.041400
8.308064,-0.080034,-0.053387,-0.034941
8.348220,-0.071791,-0.081273,-0.027878
8.378336,-0.061652,-0.117929,-0.038203
8.408453,-0.083941,-0.117817,-0.010074
8.448609,-0.061654,-0.047281,0.000162
8.478726,-0.062263,-0.037840,-0.004160
8.508843,-0.038839,0.013853,-0.006601
8.549000,-0.020621,-0.007198,-0.013713
8.579117,-0.013371,-0.016704,-0.006390
8.599195,0.006927,0.014444,-0.002109
8.640640,-0.012703,-0.022622,0.040039
8.670757,-0.029219,-0.044487,0.054780
8.700874,0.019466,0.029636,0.003369
8.741030,0.037073,0.059511,-0.022597
8.771147,0.001679,-0.018445,0.000064
8.801264,-0.083127,-0.071457,0.013646
8.841420,-0.086334,-0.106588,0.011383
8.871537,-0.055096,-0.082054,0.008790
8.901654,0.001853,-0.027056,0.008771
8.941810,0.124646,0.051874,0.020655
8.971927,0.016045,-0.012253,0.021107
9.002044,-0.038033,-0.055108,0.019067
9.032161,0.019491,0.017540,-0.001814
9.072317,0.010986,0.023664,0.001060
9.102434,-0.012489,-0.029036,0.002627
9.132551,0.013280,0.001286,0.003212
9.172707,0.033193,-0.000007,0.012063
9.202824,0.010695,-0.028049,0.020372
9.232941,-0.006891,-0.015727,0.024158
9.273096,0.018397,0.021485,0.012918
9.303213,0.043380,0.008867,0.011160
9.333330,0.006670,-0.011717,0.012342
9.373486,0.040533,0.012020,0.003546
9.403603,0.011805,0.019548,0.001796
9.433720,0.001615,-0.008608,0.000139
9.473876,0.018602,0.005038,0.002968
9.503993,0.037877,0.032755,-0.011075
9.534109,0.047259,0.036251,-0.014060
9.574265,-0.019199,-0.018899,0.000627
9.604382,-0.007191,-0.020884,-0.001268
9.634499,0.013685,0.007897,-0.001837
9.674655,-0.010355,-0.001352,-0.007454
9.704772,0.000190,-0.019308,-0.003862
9.734889,-0.025409,-0.008784,-0.002482
9.775045,-0.024704,0.015925,-0.004819
9.805162,0.011009,0.006463,-0.009395
9.835279,0.036726,0.028012,-0.015695
9.865396,0.052361,0.033853,-0.027438
9.905552,0.047549,0.038125,-0.023291
9.935669,0.007151,0.021842,-0.013153
9.965786,-0.018760,-0.023471,-0.001718
10.005942,-0.036066,-0.022113,-0.002077
10.036059,-0.013760,-0.007434,-0.004851
10.066176,0.012678,0.008448,-0.007731
10.106332,0.005100,0.010410,-0.000891
10.136449,-0.019340,0.004137,0.003273
10.166566,-0.048906,-0.029854,0.012723
10.206722,-0.007485,0.005082,0.004539
10.236839,0.027736,0.022848,-0.004168
10.266956,0.016886,0.003764,-0.004458
10.307112,-0.011911,-0.007126,-0.005069
10.337229,-0.001201,0.010255,-0.000998
10.367346,-0.014231,0.005807,0.002348
10.407502,-0.073860,-0.023141,-0.003813
10.437618,-0.025425,-0.027172,-0.004553
10.467736,-0.020270,0.006589,0.006712
10.507891,-0.012700,-0.014104,-0.005516
10.538008,0.009445,-0.005466,0.000040
10.568125,0.028352,0.019406,0.002272
10.608281,0.019483,0.019015,-0.005863
10.638398,0.035471,0.043015,-0.014157
10.668515,0.029396,-0.002468,-0.011558
10.698632,-0.004775,-0.006963,-0.004462
10.738788,0.029758,0.043438,-0.013434
10.768905,0.002204,0.017366,-0.006361
10.799022,-0.000403,-0.009282,-0.005377
10.839178,0.028738,0.016275,0.002088
10.869295,0.021180,0.010750,-0.008515
10.899412,-0.018871,0.005144,0.002533
10.939568,-0.036762,-0.005564,-0.000091
10.969685,-0.015518,0.007327,-0.004700
10.999802,0.024950,0.000615,-0.003016
11.039958,-0.008397,-0.000431,-0.003325
11.070075,-0.009996,-0.018646,-0.000293
11.100192,-0.046802,-0.033410,-0.001349
11.140348,-0.031813,-0.025914,0.003229
11.170465,0.003822,-0.017429,-0.002080
11.200582,0.029966,0.031362,-0.009487
11.240738,0.017454,0.024711,0.001084
11.270855,-0.019402,-0.016136,0.004748
11.300972,-0.022298,-0.016143,0.000006
11.341128,0.013553,0.024215,-0.002299
11.371245,-0.011272,0.010281,-0.000718
11.401362,-0.035860,-0.037886,0.002077
11.441518,-0.048616,-0.030517,0.000178
11.471635,-0.032695,-0.008556,-0.004461
11.501752,-0.013294,-0.009064,-0.000433
11.541908,0.001172,0.002070,-0.005042
11.572025,0.002088,-0.001709,-0.004516
11.602142,-0.009597,-0.006813,-0.006254
11.632259,-0.023175,-0.018748,0.001674
11.672415,-0.000719,-0.024154,-0.000861
11.702532,0.010908,0.009268,-0.002961
11.732649,0.011107,0.002081,-0.001974
11.772805,0.007731,-0.000887,0.000034
11.802922,0.016878,-0.001282,-0.006946
11.833039,-0.000063,-0.011786,-0.002249
11.873195,-0.009817,-0.001619,0.004349
11.903312,0.006411,0.001889,-0.003076
11.933429,-0.008958,-0.016415,0.001377
11.973585,-0.018908,-0.023189,-0.002259
12.017471,-0.010807,-0.015369,0.004305
12.047588,-0.006603,-0.017397,-0.000014
12.077705,-0.038216,-0.022260,0.004956
12.107822,-0.029371,-0.040005,0.011559
12.147978,0.009607,0.014511,-0.002653
12.178095,-0.011203,-0.015053,-0.004846
12.208212,-0.039438,-0.054028,-0.005882
12.248368,-0.044231,-0.034413,-0.000353
12.278485,-0.008847,0.012084,0.005151
12.308602,0.002617,0.002443,0.002764
12.348758,-0.003219,0.005361,-0.007096
12.378875,0.014995,0.006498,-0.003437
12.408992,-0.004053,0.004821,0.005138
12.449148,-0.001393,-0.000497,0.001303
12.479265,-0.004418,-0.002418,0.000303
12.509382,-0.016317,-0.019565,0.002327
12.549538,-0.014716,-0.020711,-0.002724
12.579655,-0.005927,-0.014728,-0.000814
12.609772,-0.001384,-0.008472,-0.001200
12.639894,0.008666,0.012917,-0.003748
12.680050,0.006083,0.001936,-0.005300
12.710167,0.009351,0.000863,0.001320
12.740284,0.022352,0.010511,-0.001495
12.780440,0.004654,-0.004272,-0.002786
12.810557,-0.009712,-0.008994,-0.000724
12.840674,0.006236,-0.001675,-0.000900
12.880830,-0.008249,-0.009625,-0.002336
12.910947,0.010084,-0.000441,-0.004180
12.941064,0.028342,0.021938,-0.006492
12.981220,0.014819,0.009978,-0.007507
13.011337,-0.022026,-0.015999,0.000379
13.041454,-0.031051,-0.020927,-0.003370
13.081610,0.004498,-0.006459,-0.002848
13.111727,-0.000119,-0.006709,-0.002331
13.141844,-0.007963,-0.003533,0.002066
13.182000,-0.006905,-0.010578,0.003330
13.212116,0.006054,-0.002328,-0.007251
13.242234,0.028120,0.017827,-0.005402
13.282390,0.014777,0.013483,0.000590
13.312507,0.001440,0.006736,0.002100
13.342624,0.003558,0.002428,-0.000975
13.372741,-0.004304,-0.011655,-0.004571
13.412897,0.011529,0.014274,-0.004057
13.443014,0.007712,-0.004412,-0.005652
13.473131,-0.005383,-0.003935,-0.008793
13.513287,0.022071,0.038496,-0.017182
13.543404,0.013821,0.020512,-0.015051
13.573520,0.013216,0.005865,-0.010674
13.613676,-0.008355,-0.002423,-0.009560
13.643793,-0.009473,-0.003888,-0.001418
13.673911,0.005118,-0.001112,-0.001829
13.714067,0.002937,0.001969,-0.002627
13.744184,-0.016291,-0.008527,0.002502
13.774301,-0.021133,-0.009563,0.005357
13.814457,-0.023254,-0.014342,0.008997
13.844574,-0.012504,-0.013150,0.003982
13.874691,-0.012155,-0.017492,0.001864
13.914847,0.001253,-0.006843,0.003695
13.944963,-0.008921,-0.008500,-0.003028
13.975081,-0.020055,-0.012434,-0.002356
14.015237,-0.031432,-0.018556,0.002056
14.045354,-0.037924,-0.021949,-0.000787
14.075471,0.014276,0.019936,-0.006007
14.115627,0.008157,-0.006488,-0.002434
14.145744,-0.020319,-0.023271,0.003661
14.175861,-0.024804,-0.012418,0.001580
14.205978,-0.019610,-0.019161,-0.000005
14.246134,-0.006168,0.000842,-0.009364
14.276251,-0.015713,-0.004960,-0.003658
14.306368,-0.009959,-0.009425,0.008654
14.346524,-0.004695,-0.005519,0.010448
14.376641,-0.006722,0.004269,0.001632
14.406758,0.000113,0.001876,-0.001017
14.446914,-0.000889,-0.001646,-0.002886
14.477031,-0.009783,-0.012716,-0.004039
14.507148,-0.021639,-0.020878,-0.008293
14.547305,-0.018738,-0.004713,-0.007503
14.577422,-0.013077,-0.000579,-0.004582
14.607539,-0.014980,-0.026056,-0.000417
14.647695,0.002125,0.003755,0.002527
14.677812,0.010980,0.000288,0.001042
14.707929,0.003723,-0.005203,-0.006609
14.748085,-0.013677,-0.004738,-0.001607
14.778202,-0.000831,0.003218,-0.002597
14.808319,-0.000286,-0.036043,0.002708
14.848475,0.024552,-0.036171,0.004731
14.878592,0.034233,-0.015007,0.019190
14.908709,0.030238,-0.022893,0.020140
14.948865,0.010423,-0.020886,0.003580
14.978982,0.016399,-0.013401,-0.009541
15.009099,0.004228,0.017133,-0.023794
15.049255,-0.026364,0.023074,-0.019676
15.079372,-0.045563,-0.006225,-0.014272
15.109489,-0.033773,-0.014202,-0.009729
15.139606,-0.003209,0.004094,-0.004561
15.179762,-0.019856,-0.017720,0.005477
15.209879,-0.047990,-0.045901,-0.001158
15.239996,-0.024151,-0.009859,-0.012371
15.280152,-0.004452,0.014129,-0.003430
15.310269,-0.003476,0.019576,0.001000
15.340386,-0.007355,0.006894,0.001265
15.380542,-0.000273,0.000409,0.000409
15.410659,0.010359,0.006049,0.005467
15.440776,0.011366,0.021957,0.012274
15.480932,0.028133,0.010590,0.008273
15.511049,0.029713,0.021480,-0.003246
15.541165,0.019731,0.030773,-0.012491
15.581321,0.005311,0.010549,-0.008947
15.611438,-0.029334,-0.002684,-0.002364
15.641555,-0.012041,-0.007591,-0.001739
15.681711,-0.020000,-0.002075,-0.010578
15.711828,-0.012852,-0.025665,-0.008720
15.741945,-0.015707,-0.040613,0.000785
15.782101,-0.021067,-0.021411,0.010364
15.812218,-0.010802,0.012142,-0.002149
15.842335,0.031466,0.025263,-0.011639
15.882491,0.025998,0.022899,-0.006670
15.912608,0.011261,0.020264,0.005308
15.942725,-0.002025,0.008873,0.003978
15.972842,0.002709,0.009844,-0.005704
16.012993,-0.006656,-0.006199,0.000298
16.043110,-0.003806,-0.006757,0.000434
16.083266,0.020136,0.000890,-0.000463
16.113383,0.029736,0.014654,-0.001179
16.143500,0.024775,0.015670,-0.001527
16.183656,0.032472,0.003618,-0.009060
16.213773,0.029136,0.024024,-0.018475
16.243890,0.009697,0.023552,-0.013495
16.284046,0.002129,-0.019720,-0.007441
16.314164,-0.012209,0.004491,-0.016904
16.344281,-0.028328,-0.002009,-0.011342
16.374398,-0.042773,-0.024130,-0.000137
16.414554,-0.003867,0.011918,-0.013962
16.444671,0.019508,0.011151,-0.010271
16.474788,-0.017541,0.004452,-0.001950
16.514944,-0.022194,-0.012269,0.002412
16.545061,-0.015124,-0.008185,0.001547
16.575178,-0.044768,-0.026143,0.003855
16.605295,-0.037960,-0.039253,0.005558
16.635436,-0.018175,-0.016223,0.006839
16.675592,-0.020613,-0.012702,0.011204
16.705709,-0.017875,-0.002154,0.005188
16.735826,-0.006922,-0.013206,0.000862
16.775982,0.013922,0.013710,0.003502
16.806099,-0.005607,0.015531,0.008387
16.836216,0.009013,0.000266,0.010207
16.876372,0.002298,-0.005798,0.009626
16.906489,0.005654,-0.015129,0.006957
16.936606,0.004506,0.010394,0.003909
16.976762,0.023497,0.009617,-0.004360
17.006879,0.024975,0.014148,-0.000551
17.036996,0.010460,-0.002568,0.001217
17.077152,-0.020058,-0.017457,0.005532
17.107269,-0.008156,-0.005010,-0.000981
17.137386,0.003700,-0.009087,-0.006054
17.177543,-0.004991,-0.007619,0.001013
17.207660,-0.008117,-0.007426,0.000944
17.237777,-0.002715,-0.007711,0.002146
17.267894,-0.012877,-0.014910,-0.001181
17.308050,-0.022385,-0.012923,-0.000920
17.338167,-0.016583,-0.017582,-0.001140
17.368284,-0.011713,-0.005103,-0.003647
17.408440,-0.000903,-0.000585,-0.000015
17.438557,0.007330,-0.000749,-0.002543
17.468674,0.002632,0.002849,-0.003379
17.508830,-0.007208,-0.004180,0.000745
17.538948,0.003453,0.011936,-0.002173
17.569065,-0.002215,-0.004322,-0.004289
17.609221,0.002754,0.000284,0.004752
17.639338,0.002396,0.003869,-0.001343
17.669455,0.001630,-0.004674,0.001348
17.709611,-0.000214,-0.002974,-0.004906
17.739728,-0.013762,-0.020456,0.000523
17.769845,0.002923,-0.003699,0.001871
17.810001,0.013860,0.005264,0.004770
17.840118,0.003447,0.002553,-0.000035
17.870235,0.011157,0.014501,-0.004566
17.910391,0.026532,0.007882,-0.002490
17.940508,0.014333,0.002970,-0.000469
17.970625,0.004989,-0.002390,-0.000139
18.000742,0.013795,0.004307,0.000969
18.040898,0.001556,-0.014677,0.001243
18.071016,-0.005218,0.006907,0.003533
18.101132,0.012588,0.014680,0.005772
18.141289,0.010064,0.004824,-0.000370
18.171406,0.023920,0.003264,0.007203
18.201523,0.014810,0.013353,0.004597
18.241679,0.002873,-0.004541,0.003377
18.271796,-0.007954,-0.004438,0.001967
18.301913,-0.017178,-0.007196,-0.005308
18.342069,-0.003419,-0.010499,-0.001018
18.372186,-0.005853,-0.002826,0.000617
18.402303,-0.019735,-0.019943,0.005203
18.442459,-0.005015,-0.003771,-0.000208
18.472576,-0.001438,0.004666,-0.001017
18.502693,0.007600,0.008606,0.000130
18.542848,-0.000243,-0.000058,-0.003981
18.572965,-0.013705,-0.007697,-0.000477
18.603082,0.001461,0.006999,0.001026
18.643238,0.006232,0.000329,-0.005162
18.673355,0.001376,-0.004686,-0.002883
18.703472,-0.005835,-0.003562,-0.000733
18.743628,0.006234,0.007693,-0.004901
18.773745,0.014141,0.003504,-0.005855
18.803862,0.004285,0.001314,0.006551
18.844019,0.004738,0.004392,-0.002653
18.874136,-0.002402,-0.002557,-0.001385
18.904253,-0.014101,-0.008035,0.001643
18.934370,-0.002930,-0.010400,-0.004763
18.974526,0.005212,0.000862,-0.002352
19.004643,-0.008634,0.003173,0.002254
19.034760,-0.010857,-0.002543,-0.002690
19.074916,-0.004653,-0.004086,-0.002673
19.105033,0.003340,0.000572,-0.000507
19.135150,0.002939,0.012499,0.004266
19.175306,0.006481,-0.000832,-0.001985
19.205423,0.000861,-0.008208,-0.002066
19.235540,0.001826,-0.001860,-0.004781
19.275696,0.001244,0.001158,-0.001227
19.305813,-0.002037,0.002162,-0.004280
19.335930,-0.008103,-0.011702,-0.005247
19.376086,0.002471,-0.002340,-0.006372
19.406203,0.001662,0.007039,0.000565
19.436320,-0.006021,-0.005672,-0.000429
19.476476,-0.013372,-0.013606,-0.003243
19.506594,-0.026617,-0.018191,-0.000939
19.536712,-0.030691,-0.022457,-0.001447
19.576868,-0.011661,-0.010370,-0.000503
19.606985,0.017431,0.009401,-0.006836
19.637102,-0.001675,0.000299,-0.006877
19.677258,0.000121,0.001317,0.000855
19.707375,0.013143,0.014086,-0.001386
19.737492,0.008186,0.006412,-0.002805
19.767609,-0.022511,-0.019371,0.001188
19.807765,-0.026978,-0.012435,0.001528
19.837882,-0.007554,0.000127,-0.007877
19.867999,-0.012677,-0.013655,-0.007349
19.908155,-0.016886,-0.005783,-0.009608
19.938272,-0.014506,-0.010119,-0.007614
19.968389,-0.013008,0.002370,-0.006103
20.008521,-0.001981,0.000899,-0.006736
20.048677,-0.011490,0.004500,-0.003590
20.078794,-0.009543,0.001489,-0.001954
20.108911,-0.021570,-0.014178,-0.002386
20.149067,-0.028836,-0.014435,-0.002235
20.179184,0.002826,-0.010477,-0.002280
20.209301,0.035247,0.017493,-0.003999
20.249458,0.022866,0.005501,-0.002294
20.279575,-0.008830,-0.003223,-0.001407
20.309692,-0.010244,-0.007280,0.005437
20.349848,0.007357,0.002564,0.002699
20.379965,0.004924,0.004878,0.000593
20.410082,0.009278,0.002387,-0.004262
20.450238,0.004096,0.004741,-0.004019
20.480355,-0.002108,0.006721,-0.002242
20.510472,0.012768,0.000330,-0.002349
20.550628,-0.008090,-0.006245,-0.001950
20.580745,-0.016241,-0.010654,-0.006540
20.610867,0.012111,0.018064,-0.007870
20.640984,0.030099,0.025534,-0.015859
20.681140,0.004875,0.008307,-0.006954
20.711257,-0.027299,-0.018133,0.002248
20.741374,-0.004063,-0.002068,-0.006556
20.781530,-0.003534,0.002298,-0.006124
20.811647,-0.001894,-0.006021,-0.002766
20.841765,0.006907,-0.003765,-0.004529
20.881921,0.019630,0.011751,-0.007789
20.912038,0.020106,0.020612,-0.012071
20.942155,0.019444,0.008818,-0.009833
20.982311,0.016904,0.004017,-0.010898
21.012428,0.003489,-0.002862,0.001444
21.042545,0.048772,-0.011499,-0.004853
21.072662,0.010979,-0.011878,-0.015062
21.112818,0.029896,-0.000419,-0.006051
21.142935,0.046332,0.042163,-0.000217
21.173052,0.032217,0.004426,0.008700
21.213208,0.000065,-0.010827,0.009359
21.243325,0.034131,0.024267,-0.001987
21.273443,0.052679,0.010078,0.000117
21.313599,-0.027069,-0.018678,0.016672
21.343716,-0.042494,-0.008341,0.018694
21.373833,0.019262,0.008950,-0.000381
21.413989,0.011178,-0.016580,0.002552
21.444106,0.014770,0.008126,0.005355
21.474223,0.006206,-0.002750,-0.010344
21.514379,-0.043105,-0.029732,0.002400
21.544495,-0.028300,-0.021063,0.005489
21.574612,-0.021809,-0.009867,0.001480
21.614768,0.018473,0.027026,0.006636
21.644886,0.018859,0.007677,0.001534
21.675003,0.015523,0.012222,0.015289
21.715159,-0.051082,-0.040567,0.012663
21.745276,-0.095111,-0.070167,0.009348
21.775393,-0.064149,-0.024231,0.002115
21.815549,-0.015530,-0.066630,-0.014663
21.845666,0.015851,0.051965,-0.021090
21.875783,0.067615,0.058221,-0.031280
21.905900,-0.002384,0.002735,0.012854
21.946056,-0.107966,-0.049934,0.033508
21.976174,-0.100846,-0.069525,0.036856
22.006291,-0.027961,-0.020474,0.015960
22.046447,0.055101,0.051704,-0.004345
22.076564,0.026934,0.018167,0.004970
22.106681,-0.009432,0.010891,0.007841
22.146837,-0.062829,-0.036111,0.012563
22.176954,-0.012244,0.003357,0.005300
22.207071,0.035213,0.031393,-0.002295
22.247227,0.035528,0.010961,-0.011481
22.277344,0.000345,-0.009846,0.001961
22.307462,-0.021051,0.004173,0.007408
22.347618,0.023983,0.038319,-0.002118
22.377735,0.052920,0.071823,-0.007134
22.407852,0.072681,0.064729,0.008177
22.448008,0.031187,0.007535,0.013544
22.478125,-0.042036,0.022539,0.014702
22.508242,-0.042097,0.039691,0.017316
22.548398,0.042836,0.039825,0.009152
22.578515,0.006736,0.028786,0.001524
22.608633,-0.004536,0.005463,-0.005077
22.648789,-0.023020,0.001252,-0.014351
22.678906,-0.008154,-0.002495,-0.018462
22.709023,0.007722,-0.016989,-0.011456
22.749179,0.035280,-0.005062,-0.023812
22.779296,0.071540,0.001227,-0.046346
22.809413,0.055495,-0.021441,-0.039692
22.839530,-0.052033,-0.027682,-0.016397
22.879687,-0.069267,-0.011073,-0.004412
22.909804,-0.020188,-0.025370,-0.011514
22.939921,0.014732,0.009517,-0.017741
22.980077,-0.024099,-0.020224,-0.004553
23.010194,-0.008136,-0.026986,-0.000483
23.040311,-0.007777,-0.025037,-0.000172
23.080467,0.013166,-0.010154,-0.013702
23.110584,0.016803,0.011196,-0.020022
23.140702,-0.000137,0.032064,-0.002850
23.180858,0.008799,0.003315,-0.002239
23.210975,-0.006268,0.010512,0.002211
23.241092,0.034913,0.030520,-0.010304
23.281248,0.038889,0.025500,-0.013053
23.311365,0.012185,0.001454,-0.013216
23.341482,0.011635,0.006671,-0.009453
23.381638,0.025682,0.010429,-0.004241
23.411756,-0.001015,0.010190,-0.007425
23.441873,0.008553,0.000532,-0.000391
23.482029,0.022311,0.021884,0.001113
23.512146,0.021837,0.009633,0.000155
23.542264,0.009749,-0.003774,0.006469
23.582420,0.025735,0.024802,-0.005173
23.612537,0.018579,0.016904,-0.020106
23.642654,-0.025621,-0.033861,0.007572
23.672772,-0.002545,-0.018137,-0.004351
23.712928,0.062103,0.041733,-0.022553
23.743045,0.093482,0.063876,-0.028730
23.773162,0.063941,0.033866,-0.023827
23.813318,0.010714,-0.010970,-0.011679
23.843435,-0.006356,-0.022268,-0.004730
23.873552,0.004525,0.000477,-0.001102
23.913709,-0.005522,0.001968,-0.000554
23.943826,-0.005912,-0.000309,-0.004680
23.973943,-0.007849,-0.011375,-0.011316
24.014099,-0.011398,-0.004831,-0.003100
24.044216,-0.031454,-0.017184,-0.001790
24.074333,-0.028578,-0.015477,-0.002430
24.114489,0.000887,-0.012298,-0.002279
24.144607,-0.017953,-0.010602,-0.002003
24.174724,-0.042527,-0.030330,-0.015104
24.214880,-0.056169,-0.038916,-0.003924
24.244997,-0.143477,-0.047928,-0.016895
24.275114,-0.140839,-0.023340,-0.039608
24.315270,-0.066630,-0.007259,-0.018681
24.345387,-0.122060,-0.114739,0.008847
24.375504,-0.175002,-0.128615,0.005634
24.415661,-0.025044,-0.037903,-0.049871
24.445778,-0.011601,0.020445,-0.054643
24.475895,-0.012375,0.050297,-0.089016
24.516051,0.199130,0.153324,-0.206044
24.546168,0.259970,0.164395,-0.169782
24.576285,0.181840,0.157903,-0.100321
24.606402,0.121703,0.166613,-0.140801
24.646559,0.025163,0.040646,-0.070796
24.676676,0.021588,-0.031864,0.013944
24.706793,-0.067596,-0.052115,0.022006
24.746949,-0.037401,-0.047064,0.011588
24.777066,-0.002087,-0.011078,0.004810
24.807183,0.050119,0.039461,-0.005110
24.847339,0.126970,0.083296,-0.005120
24.877457,0.054525,0.055147,-0.002825
24.907574,-0.002111,0.005438,0.023508
24.947730,0.007585,0.012849,0.026860
24.977847,0.013902,0.018813,0.018525
25.007964,0.079509,0.057882,-0.010049
25.048120,0.081741,-0.007595,-0.008679
25.078237,0.009727,-0.006016,0.013330
25.108355,0.003192,0.040914,-0.012226
25.148511,0.003301,-0.028500,0.025564
25.178628,-0.045416,-0.047782,0.023730
25.208745,-0.102662,-0.109411,0.013456
25.248901,-0.212145,-0.202035,0.016279
25.279018,-0.013273,0.018770,0.022889
25.309136,0.234688,0.143594,0.023475
25.339253,0.194240,0.039496,-0.003116
25.379409,0.103128,0.038625,-0.012834
25.409526,0.069793,-0.001854,-0.009631
25.439643,-0.105129,-0.080896,0.013056
25.479799,-0.181207,-0.047436,0.022875
25.509916,-0.063483,-0.015882,0.028457
25.540033,-0.030846,-0.032056,0.018247
25.580189,-0.084142,-0.054748,0.035126
25.610306,-0.018383,0.004822,0.022552
25.640423,0.071771,0.039622,-0.003274
25.680579,0.037887,0.000712,0.008383
25.710696,-0.004738,-0.019049,-0.002183
25.740813,-0.009243,-0.023604,-0.010765
25.780970,-0.024358,-0.052259,0.012979
25.811087,-0.031494,-0.021379,0.007491
25.841204,-0.010092,-0.007692,-0.009209
25.881360,-0.032138,-0.030764,0.004832
25.911477,-0.017093,-0.014752,0.010813
25.941594,0.005118,0.002849,0.011890
25.981751,0.004294,-0.003675,0.009519
26.011868,0.023744,-0.009566,0.006353
26.041985,0.058028,0.008504,-0.004204
26.082141,0.032378,0.012759,0.002324
26.112258,-0.011341,0.001585,0.011251
26.142375,-0.032752,-0.019660,0.009433
26.182531,-0.023874,-0.029611,0.014149
26.212649,0.004178,-0.011142,0.003785
26.242766,0.011450,0.000591,0.005058
26.272883,-0.033124,-0.044665,0.012995
26.313039,-0.016001,-0.010918,0.009721
26.343156,0.037220,0.027763,-0.003556
26.373273,0.087543,0.014496,-0.006508
26.413429,0.063247,0.021729,0.000336
26.443547,0.019662,0.013049,0.004235
26.473664,0.013752,-0.015108,0.006848
26.513820,-0.012092,-0.010920,0.011973
26.543938,-0.011817,-0.006996,0.006718
26.574055,-0.026223,-0.016412,0.002972
26.614211,0.003663,0.002839,0.002133
26.644329,0.040184,0.040545,-0.006059
26.674446,0.044417,0.032199,-0.012644
26.714602,-0.002348,0.008110,-0.011119
26.744719,-0.015848,-0.006486,-0.002110
26.774836,-0.067998,-0.032807,0.012841
26.814992,-0.042494,-0.028182,0.007294
26.845109,-0.031696,-0.023605,0.002075
26.875227,-0.042476,-0.024255,0.016448
26.915383,-0.014696,0.008946,0.004527
26.945500,0.021255,0.009148,-0.004250
26.975617,0.016268,0.005038,0.001240
27.015773,0.017294,0.006557,-0.009114
27.045890,0.000076,0.001201,-0.006543
27.076008,-0.022550,-0.012072,-0.001496
27.106125,-0.015693,-0.005382,0.002020
27.146281,-0.006397,-0.002104,-0.001900
27.176398,-0.018011,-0.015000,0.000505
27.206515,-0.026585,-0.001177,-0.007108
27.246671,-0.015671,-0.007216,-0.010281
27.276788,-0.023602,0.001825,-0.021727
27.306906,-0.015113,-0.018187,-0.019561
27.347062,-0.011231,-0.018596,-0.004069
27.377179,0.036254,0.024386,-0.020844
27.407296,0.043941,0.028660,-0.014539
27.447452,0.034722,0.041518,-0.001333
27.477569,0.038503,0.026975,-0.018004
27.507687,0.033162,0.037003,-0.017754
27.547842,0.007513,0.017561,-0.001948
27.577959,-0.027167,-0.007864,-0.000330
27.608076,-0.058218,-0.040584,-0.006564
27.648232,-0.036874,-0.036677,0.008730
27.678349,-0.041296,-0.030545,0.025681
27.708467,-0.034676,-0.018147,0.029638
27.748623,-0.042760,0.015702,0.019802
27.778740,-0.005883,0.032280,0.016268
27.808857,-0.001348,0.034106,-0.004592
27.849013,0.013442,0.000935,-0.002210
27.879130,0.051142,0.002427,-0.032872
27.909248,0.096519,0.046190,-0.036908
27.939365,0.057213,-0.006707,-0.031660
27.979521,0.074271,0.021038,-0.037801
28.009638,0.063992,0.044856,-0.042779
28.039755,0.014656,0.026857,-0.034462
28.079911,-0.016457,0.028934,-0.029094
28.110028,-0.011091,-0.002126,-0.028771
28.140146,-0.040181,-0.037079,-0.027194
28.180302,-0.019387,0.004466,-0.048026
28.210419,0.037883,0.048118,-0.063255
28.240536,0.064656,0.035710,-0.063797
28.280692,0.058424,0.006759,-0.025901
28.310809,0.045177,0.015950,-0.034116
28.340927,0.013904,0.021960,-0.028823
28.381083,0.027093,-0.016595,-0.016783
28.411200,0.025331,-0.001525,0.001791
28.441317,-0.013742,0.027249,0.020640
28.481473,0.014794,0.031767,0.017345
28.511590,0.011197,0.051000,0.031260
28.541712,0.003544,0.007643,0.024604
28.581868,-0.044662,-0.024739,0.017729
28.611985,-0.075876,-0.035910,0.028300
28.642102,0.002874,-0.021797,0.019856
28.682258,0.014004,-0.006333,-0.004279
28.712375,-0.032984,-0.026994,-0.000227
28.742493,-0.033580,-0.022288,0.008209
28.772610,0.020484,0.007555,0.002532
28.812766,0.034640,0.032277,0.008676
28.842883,0.003813,0.000654,-0.002667
28.873000,-0.021705,-0.013037,-0.008570
28.913156,-0.006734,-0.013290,-0.012100
28.943274,-0.016902,-0.025240,-0.004877
28.973391,-0.017749,-0.012207,-0.000177
29.013547,0.004246,-0.004914,-0.005392
29.043664,0.006195,-0.011617,-0.001269
29.073781,-0.007735,-0.010789,-0.002197
29.113937,-0.006440,-0.014711,0.002895
29.144055,0.012454,-0.014650,-0.000146
29.174172,0.000543,0.009632,-0.001855
29.214328,0.003232,-0.000140,0.010541
29.244445,-0.007239,0.008619,0.007842
29.274562,0.001888,0.014694,0.003215
29.314718,-0.019084,-0.022561,0.006268
29.344836,-0.007251,-0.016570,0.001012
29.374953,0.000885,0.002620,-0.004554
29.415109,-0.011102,-0.000628,-0.009276
29.445226,-0.002303,-0.003737,-0.007015
29.475343,0.014669,-0.000729,-0.006154
29.515499,-0.012496,-0.016840,-0.011599
29.545614,-0.019479,-0.013740,0.000081
29.575731,-0.006439,-0.009784,0.001949
29.605848,-0.007013,-0.003030,0.003022
29.646004,0.004634,-0.007229,0.010595
29.676121,-0.050874,-0.002575,0.010299
29.706238,-0.038995,0.029832,-0.006880
29.746395,-0.055603,0.007040,0.004888
29.776512,0.001241,-0.000897,-0.030736
29.806629,0.065543,0.028866,-0.073468
29.846785,0.055623,-0.000834,-0.046815
29.876902,-0.064724,-0.054672,-0.015548
29.907019,-0.101903,-0.042925,-0.010240
29.947176,-0.074300,-0.052048,-0.000165
29.977293,-0.239584,-0.130832,0.019345
30.007410,-0.353281,-0.198292,0.036990
30.047566,-0.270225,-0.101119,-0.003782
30.077683,-0.046680,-0.027332,-0.001068
30.107800,0.025062,-0.036347,-0.012946
30.147957,0.030268,-0.005224,-0.004593
30.178074,0.023039,0.029027,-0.054622
30.208191,0.067042,0.023957,-0.021174
30.248347,-0.008803,0.017702,-0.013183
30.278464,-0.099037,-0.042454,0.000724
30.308582,-0.067667,-0.047328,0.007609
30.348738,-0.006923,-0.000863,-0.004131
30.378855,-0.017865,-0.001421,-0.012821
30.408972,-0.052420,-0.054913,-0.019370
30.449128,-0.019878,-0.045796,-0.010072
30.479245,-0.012795,-0.004758,-0.013702
30.509363,0.008602,-0.000183,-0.003951
30.539480,0.000392,-0.007455,0.010686
30.579636,-0.021912,-0.015932,0.018025
30.609753,-0.025466,-0.019200,0.022351
30.639870,0.012161,0.010901,0.011533
30.680026,0.032445,0.016736,0.016840
30.710144,0.006249,-0.019215,0.023611
30.740261,-0.056571,-0.035574,0.024289
30.780417,-0.004719,0.000325,0.011334
30.810534,0.060771,0.022859,0.000819
30.840651,0.036329,0.016903,0.012633
30.880808,-0.008612,-0.011980,0.021942
30.910925,0.027791,0.000219,0.020994
30.941042,0.019337,-0.006542,0.031117
30.981198,-0.003664,-0.021396,0.025365
31.011315,0.015206,0.000963,0.015111
31.041432,0.063421,0.006869,0.002801
31.081589,0.042359,0.016439,0.010519
31.111706,0.059938,0.023901,0.002257
31.141823,0.067349,0.033818,-0.001138
31.181979,0.034097,0.028105,-0.001529
31.212096,0.053052,0.029657,0.011752
31.242213,0.064318,0.018643,0.019756
31.282370,-0.019798,-0.020228,0.024966
31.312487,0.001056,-0.035366,0.023958
31.342604,-0.007465,-0.016835,0.013757
31.372721,0.008346,0.010003,-0.008521
31.412877,0.058730,0.024357,-0.022107
31.442995,0.029005,0.012487,-0.013550
31.473112,-0.021527,0.000573,-0.000332
31.513268,-0.000845,0.008524,-0.022997
31.543385,0.005045,0.002433,-0.013531
31.573502,-0.032581,-0.008074,-0.008417
31.613658,-0.021089,0.016958,-0.011504
31.643776,0.018340,0.010412,-0.008815
31.673893,0.023569,0.007144,-0.005035
31.714049,0.004300,0.006542,0.002521
31.744166,0.041939,0.001790,-0.007340
31.774283,0.047876,-0.023913,-0.001007
31.814440,-0.039694,-0.048284,0.013911
31.844557,-0.091910,-0.082124,0.013152
31.874674,-0.082118,-0.075752,0.005834
31.914830,0.036552,0.022057,-0.014325
31.944947,0.003354,0.023581,-0.016149
31.975065,-0.016471,-0.002219,-0.013886
32.015221,-0.024500,0.004162,-0.009151
32.045338,-0.013483,0.011002,0.004210
32.075455,-0.015757,0.017440,-0.004583
32.115611,-0.034801,-0.014345,0.003726
32.145728,-0.058896,-0.050683,0.022913
32.175846,-0.098711,-0.076808,0.029291
32.205963,-0.105263,-0.060152,0.026200
32.246119,-0.019204,0.005806,0.011519
32.276236,0.034968,-0.008954,-0.002276
32.306353,0.002606,-0.003559,-0.009450
32.346510,-0.034722,-0.007800,0.007256
32.376627,-0.018159,0.008602,-0.000491
32.406744,0.033399,0.039348,-0.010590
32.446900,0.016501,0.005914,-0.011971
32.477017,-0.020263,-0.020256,-0.007302
32.507134,-0.000851,-0.006043,-0.004714
32.547291,0.017752,0.009137,-0.006863
32.577408,-0.009547,-0.006189,0.006624
32.607525,-0.017712,-0.008771,0.001358
32.647681,-0.027324,-0.014463,-0.009596
32.677798,-0.039823,-0.000706,-0.002218
32.707916,-0.048461,-0.008452,-0.006616
32.748072,0.034835,0.033598,-0.021979
32.778189,0.088762,0.058277,-0.033140
32.808306,0.069028,0.051050,-0.036881
32.848462,0.011990,0.031153,-0.006934
32.878580,-0.032818,0.000212,0.001784
32.908697,-0.004539,-0.001223,0.001267
32.948853,0.033810,0.006709,0.000858
32.978970,0.041734,0.011076,0.004865
33.009087,0.005167,-0.017266,0.007108
33.039205,-0.002658,-0.004434,0.004944
33.079361,0.007181,0.014956,-0.004731
33.109478,0.025683,0.017905,-0.015212
33.139595,-0.019718,-0.016344,-0.014499
33.179751,-0.027192,-0.020412,-0.005491
33.209869,0.007915,0.008248,-0.009290
33.239986,-0.007146,-0.003570,-0.003491
33.280142,-0.006363,-0.014525,-0.003708
33.310259,-0.000977,0.008046,-0.014336
33.340376,-0.001313,0.015369,-0.011545
33.380533,-0.005931,0.013077,-0.008804
33.410650,-0.023037,0.002607,-0.002708
33.440767,-0.016152,-0.001423,-0.005118
33.480923,-0.016247,-0.002150,-0.008426
33.511040,-0.050639,-0.028983,-0.001181
33.541157,-0.022523,-0.015206,-0.002062
33.581313,0.004878,0.006540,-0.002390
33.611430,-0.011872,0.003644,0.001288
33.641547,-0.003458,-0.005866,-0.002019
33.681703,0.023764,0.008824,-0.009702
33.711820,0.041270,0.019170,-0.013498
33.741938,-0.003429,0.001323,-0.009755
33.782094,-0.018474,-0.015085,-0.002091
33.812211,-0.015684,-0.008192,-0.004494
33.842328,0.006382,0.007966,-0.002776
33.872445,0.041500,0.015947,-0.006119
33.912602,-0.033049,-0.017126,0.002433
33.942719,-0.049747,-0.028975,0.005518
33.972836,0.006933,-0.009629,0.002510
34.012992,0.020938,0.015007,-0.011288
34.043109,0.004046,0.000964,-0.007466
34.073227,-0.026699,-0.015905,-0.001359
34.113383,-0.013436,-0.020298,0.008034
34.143500,0.007069,0.009247,0.000821
34.173617,0.010172,0.004578,0.002039
34.213773,0.013074,-0.001529,0.004910
34.243891,0.016014,0.012273,0.002443
34.274008,0.023213,0.008473,0.000784
34.314164,0.011731,0.011110,-0.000913
34.344281,0.043159,0.014610,-0.010709
34.374398,0.008937,0.009902,-0.005434
34.414555,0.015345,-0.012232,0.000043
34.444672,-0.008296,-0.012950,-0.001197
34.474789,-0.024396,-0.013111,0.003334
34.514945,-0.024900,-0.019763,0.003361
34.545062,-0.026369,-0.015830,0.002763
34.575181,0.010981,0.010593,-0.001318
34.615337,0.011607,0.008024,0.000589
34.645454,-0.039429,-0.011681,0.004765
34.675571,-0.039941,-0.017601,0.007311
34.715727,-0.018470,-0.006266,0.007824
34.745845,-0.017482,-0.008336,0.004953
34.775962,-0.012405,-0.016475,0.003482
34.806079,0.005230,-0.001402,0.005814
34.846235,-0.000932,0.008499,0.000245
34.876352,0.004677,0.012591,-0.002246
34.906470,0.034109,0.009083,0.001226
34.946626,0.022528,-0.011640,0.016761
34.976743,-0.002509,-0.012636,0.012217
35.006860,0.021193,-0.007650,0.004337
35.047017,0.021073,-0.014386,0.001926
35.077134,-0.002692,0.013781,-0.002797
35.107251,-0.019069,0.013154,-0.001432
35.147407,-0.012885,-0.008519,-0.006751
35.177524,0.018079,0.020442,-0.010167
35.207641,0.011376,0.005873,-0.000112
35.247798,-0.009312,-0.003361,0.000436
35.277915,-0.025016,-0.031054,0.006046
35.308032,-0.035375,-0.029076,0.011710
35.348188,-0.002475,-0.012124,0.006937
35.378306,-0.000301,-0.011702,-0.001982
35.408423,-0.031046,-0.012919,-0.001045
35.448579,-0.024174,-0.007668,0.006984
35.478696,0.015811,0.024001,-0.006583
35.508813,0.010847,0.001842,-0.010711
35.538930,0.002295,-0.006507,-0.002576
35.579086,-0.012896,-0.005754,0.005087
35.609203,0.000810,0.003791,-0.001696
35.649359,0.009101,0.001383,-0.010321
35.679476,-0.004078,0.003425,-0.001173
35.709594,-0.007486,-0.012032,0.000539
35.739711,-0.011722,-0.009965,-0.006233
35.779867,0.004887,0.006878,-0.005928
35.809984,-0.009861,-0.002524,0.000035
35.840101,0.005716,0.000506,-0.004349
35.880258,0.010272,0.001946,-0.007484
35.910375,-0.009656,-0.010383,-0.002085
35.940492,-0.007066,-0.001844,-0.004356
35.980648,-0.002178,-0.002259,0.000486
36.010765,-0.004046,-0.007993,0.000577
36.040883,-0.016622,-0.017110,-0.002419
36.081039,0.004547,-0.004896,-0.002743
36.111156,0.010861,-0.008258,-0.007546
36.141273,-0.004710,-0.009379,-0.005805
36.181430,-0.040123,-0.021161,0.001047
36.211547,-0.003936,-0.012055,-0.002209
36.241664,0.000100,-0.003328,-0.003623
36.281820,-0.019201,-0.015311,0.003717
36.311937,0.002403,-0.007422,0.005000
36.342055,0.014631,0.002084,-0.004858
36.382211,0.044041,0.026943,-0.006917
36.412328,0.023796,0.023822,-0.002674
36.442445,0.001167,0.014009,0.000673
36.472562,-0.006152,0.003402,0.000586
36.512719,0.026462,0.007010,-0.003026
36.542836,0.023398,0.019263,-0.004017
36.572957,0.009723,0.000847,-0.001877
36.613113,-0.003849,-0.004862,0.002660
36.643231,-0.016557,-0.010910,0.002471
36.673348,-0.012340,-0.017553,0.000203
36.713504,-0.024863,-0.019510,-0.003403
36.743621,-0.040721,-0.019550,-0.002243
36.773738,-0.040542,-0.010817,-0.006943
36.813895,-0.019377,-0.022968,-0.008619
36.844012,0.002841,0.008876,-0.007251
36.874129,0.003286,0.006798,-0.006404
36.914285,-0.009170,-0.020355,-0.005443
36.944402,0.001049,-0.006922,-0.005521
36.974520,0.050731,0.024289,-0.015654
37.014676,0.042674,0.019306,-0.016735
37.044793,-0.013751,-0.028369,-0.003902
37.074910,-0.018627,-0.012358,-0.004406
37.115067,0.015838,0.006821,-0.005774
37.145184,0.005091,0.004500,-0.011573
37.175301,0.016929,0.005454,-0.020969
37.215457,-0.012962,-0.008958,-0.004517
37.245574,-0.004132,0.003111,-0.000048
37.275692,-0.000924,0.010631,-0.003406
37.305809,0.012376,0.014166,-0.004662
37.345965,0.000189,-0.002906,-0.001747
37.376082,0.012085,-0.001564,0.002052
37.406199,0.017650,0.017068,-0.000551
37.446356,-0.006951,0.003227,0.001903
37.476473,0.006318,-0.010161,0.003128
37.506590,-0.006113,-0.000916,0.004491
37.546746,-0.018514,-0.007255,0.004619
37.576860,-0.006612,-0.008717,-0.003302
37.606977,-0.026225,-0.013473,0.004752
37.647133,-0.021649,-0.011522,0.004404
37.677250,0.013862,0.004045,-0.008803
37.707367,0.008983,0.012484,-0.006432
37.747524,-0.000106,-0.002056,-0.001661
37.777641,0.015245,0.003438,-0.002086
37.807758,0.003377,0.009956,0.005822
37.847914,0.014980,0.010522,0.005201
37.878032,0.024240,0.003014,-0.000705
37.908149,0.017244,0.009487,0.000470
37.948305,-0.035063,-0.009177,0.006701
37.978422,-0.036882,-0.026445,0.005074
38.008539,-0.021460,-0.021062,0.000694
38.048696,-0.022216,-0.007950,0.001276
38.078813,-0.018936,-0.020429,0.002617
38.108930,-0.054798,-0.040216,0.002076
38.149086,-0.035029,-0.015335,-0.004473
38.179204,0.006932,-0.001100,-0.002525
38.209321,0.014340,0.007328,0.000059
38.239438,-0.016049,-0.005942,0.005684
38.279594,-0.001276,0.001516,0.006461
38.309711,0.011197,0.002855,0.003471
38.339829,0.015638,0.011540,0.003294
38.379985,0.029175,0.022650,0.002916
38.410102,0.014593,-0.000566,0.005754
38.440219,0.023364,0.005822,-0.001649
38.480376,-0.017622,-0.000305,0.007691
38.510493,-0.027403,-0.021480,0.007527
38.540610,-0.065964,-0.045962,0.008775
38.580767,-0.025654,-0.010765,-0.007465
38.610885,-0.034532,-0.024983,-0.003324
38.641002,-0.038369,-0.025872,-0.003991
38.681158,-0.060795,-0.020667,-0.002195
38.711275,-0.056064,-0.030519,0.003630
38.741392,-0.004188,-0.004682,-0.002062
38.781549,0.012427,0.014393,-0.003300
38.811666,0.010172,0.019931,-0.000402
38.841783,0.011690,-0.003177,0.003267
38.881939,0.010812,0.019136,-0.004160
38.912057,0.003879,0.007407,-0.005834
38.942174,0.000827,-0.010726,-0.006013
38.982330,0.005955,0.015627,-0.008749
39.012447,0.010393,0.010869,-0.008345
39.042564,0.004985,0.000481,-0.008486
39.072682,0.007686,-0.005218,-0.012208
39.112838,0.004014,0.003682,-0.010364
39.142955,-0.023274,-0.002382,-0.000512
39.173072,0.000074,-0.015715,-0.005674
39.213229,0.011150,0.002721,-0.017006
39.243346,-0.025062,-0.019652,-0.005083
39.273463,-0.044584,-0.032820,0.004611
39.313619,-0.008078,0.003877,-0.004527
39.343737,0.035429,0.016435,-0.009698
39.373854,-0.013312,-0.002159,-0.005536
39.414010,-0.017163,-0.013295,0.003242
39.444127,0.017460,0.020605,-0.006512
39.474244,0.030785,0.014209,-0.004348
39.514401,0.002778,-0.021840,-0.001731
39.544518,0.024188,0.023764,-0.008503
39.574635,0.034383,0.011763,-0.004216
39.614791,-0.013739,0.008482,-0.003591
39.644909,0.005515,-0.013789,-0.006720
39.675026,0.016309,0.006686,-0.005009
39.715182,-0.003404,0.014613,-0.000324
39.745299,-0.005075,0.007393,-0.007685
39.775417,0.016523,-0.005730,-0.010186
39.815573,0.034800,0.038910,-0.009076
39.845690,0.023902,0.027392,-0.004360
39.875807,-0.026135,-0.028750,0.002003
39.905925,-0.005522,0.000209,-0.005556
39.946081,0.051365,0.039361,-0.021062
39.976198,0.007258,0.005731,-0.000281
40.006315,-0.049670,-0.021961,0.003194
40.046471,-0.014794,-0.016704,-0.000577
40.076589,-0.030339,-0.028659,0.002987
40.106706,-0.046174,-0.025931,0.000685
40.146862,-0.041575,-0.037007,-0.000002
40.176979,-0.056091,-0.046089,0.002731
40.207097,-0.059408,-0.029402,0.004370
40.247253,-0.023610,-0.019921,0.002488
40.277370,-0.014273,-0.018247,-0.000997
40.307487,-0.038350,-0.017053,0.002745
40.347644,-0.016111,-0.004406,0.006833
40.377761,0.007136,0.001912,0.002544
40.407878,-0.000320,-0.011445,0.004493
40.448034,-0.001714,0.006775,0.009623
40.478152,0.019068,0.028513,0.002482
40.508269,0.063194,0.044548,-0.006955
40.548425,0.038150,0.033063,0.001588
40.578542,0.009564,0.013741,0.010109
40.608659,0.000927,-0.005449,0.005464
40.648816,0.007356,-0.010740,0.001796
40.678933,-0.002964,0.001098,-0.001459
40.709050,-0.013415,-0.013038,-0.001993
40.749207,-0.040658,-0.037944,0.000439
40.779324,-0.023717,-0.004671,-0.001866
40.809441,0.002159,0.000910,-0.001933
40.839558,-0.004951,-0.005806,-0.005917
40.879714,-0.009803,-0.006483,-0.000081
40.909832,0.003665,-0.006509,-0.002561
40.939949,0.003049,-0.002752,-0.001036
40.980105,0.011194,0.006448,-0.000367
41.010222,0.016702,0.003771,-0.001835
41.040340,-0.012922,-0.003850,-0.003631
41.080496,0.013555,0.011380,-0.004626
41.110613,0.038975,0.021694,-0.007066
41.140730,0.020479,0.010117,-0.001878
41.180887,-0.042877,-0.026414,0.001493
41.211004,-0.034351,-0.012438,0.002739
41.241121,0.000262,-0.011380,-0.002544
41.281277,0.002232,-0.004469,-0.008203
41.311395,-0.011846,-0.002107,-0.002315
41.341512,-0.036246,-0.018903,0.008887
41.381668,0.001570,0.000978,0.000995
41.411785,0.009788,-0.000680,-0.001251
41.441903,0.006139,0.002776,-0.001347
41.482059,-0.006463,0.004760,0.000430
41.512176,-0.015639,-0.014924,0.004260
41.542293,-0.018361,-0.002810,0.005642
41.582450,-0.029875,-0.020182,0.005846
41.612567,-0.021727,-0.019646,0.003302
41.642684,-0.017964,-0.012645,0.002271
41.672801,0.010959,0.010677,-0.001491
41.712958,0.017673,0.004930,-0.006253
41.743075,-0.013769,-0.011090,0.000942
41.773192,-0.027847,-0.005780,0.002195
41.813348,-0.024926,-0.015492,0.002720
41.843466,-0.005077,-0.016980,0.003057
41.873583,0.010726,0.007854,-0.004579
41.913739,0.016154,-0.002113,-0.000363
41.943856,0.005593,0.001980,0.000031
41.973974,0.003069,0.010053,0.001067
42.014130,0.019027,0.012839,-0.003033
42.044247,-0.008805,-0.012122,0.001447
42.074364,-0.015276,-0.007634,0.006093
42.114521,0.013459,0.009106,-0.001531
42.144638,-0.001988,-0.003924,-0.001651
42.174755,-0.014507,-0.015018,0.001382
42.214911,-0.003746,-0.007389,0.001854
42.245028,-0.034199,-0.023031,-0.000173
42.275146,-0.053121,-0.040334,0.013909
42.315302,0.044472,0.029265,-0.002877
42.345419,0.071747,0.052374,-0.012012
42.375537,0.026084,0.005055,0.002551
42.405654,-0.051828,-0.017796,0.009992
42.445810,-0.006789,0.001887,-0.001054
42.475927,-0.004345,-0.019156,-0.007166
42.506044,0.014680,0.006192,0.004209
42.546201,0.001949,0.014048,0.006095
42.576318,-0.018118,-0.013759,0.003071
42.606435,-0.041780,-0.016782,0.008242
42.646592,-0.043027,-0.017617,0.000200
42.676709,0.022203,0.023066,-0.010291
42.706826,-0.008304,-0.003522,-0.010873
42.746982,-0.022700,-0.018316,-0.009124
42.777100,-0.007306,-0.000374,-0.006154
42.807217,0.015452,0.011014,-0.008411
42.847373,-0.034922,-0.033997,0.002547
42.877490,0.001540,-0.003115,0.000860
42.907608,0.093480,0.056664,-0.010522
42.947764,0.018941,-0.001025,-0.008857
42.977881,0.004328,0.009093,-0.006256
43.007998,0.000724,-0.012064,0.000621
43.048155,-0.016638,-0.008028,0.006858
43.078272,0.019752,0.012694,0.000353
43.108389,0.038631,0.034297,-0.004731
43.148545,-0.006372,0.004867,-0.011066
43.178663,-0.008693,-0.027239,-0.002018
43.208780,0.010602,0.019588,0.004255
43.248936,0.000652,0.009265,-0.006009
43.279053,-0.027879,-0.011065,-0.006938
43.309171,-0.023658,-0.050219,0.002946
43.339288,-0.004864,-0.003938,-0.001353
43.379444,0.022149,-0.013848,-0.000454
43.409561,0.062515,0.017472,-0.009485
43.439679,0.057526,0.050413,-0.002053
43.479835,-0.016866,-0.009443,0.009609
43.509952,-0.016560,0.000243,0.011460
43.540069,0.007142,0.012439,0.006069
43.580225,0.024176,0.028564,0.002210
43.610342,0.022852,0.012203,0.002872
43.640459,0.009261,-0.004508,0.000011
43.680616,-0.030530,-0.005915,-0.000456
43.710733,-0.024983,-0.023593,0.005432
43.740850,0.021022,-0.001917,-0.005218
43.781006,0.036649,0.022997,-0.014513
43.811124,-0.000527,0.013232,-0.013950
43.841241,0.011866,-0.001989,-0.009362
43.881397,-0.010109,-0.006945,-0.007627
43.911514,-0.051493,-0.027319,-0.003632
43.941632,-0.050461,-0.040189,-0.000415
43.981788,-0.009815,-0.018854,-0.013039
44.011905,-0.009374,0.003415,-0.008731
44.042022,-0.015040,0.003127,0.004696
44.082179,-0.032588,-0.017634,0.008971
44.112296,0.026353,0.024126,-0.002124
44.142413,0.031209,0.022391,-0.001154
44.172530,-0.016949,-0.016566,0.016348
44.212687,-0.012780,0.015301,0.007713
44.242804,0.016791,0.022237,0.001872
44.272921,0.015207,-0.005567,-0.003890
44.313077,-0.008862,-0.004783,-0.003169
44.343195,-0.007250,-0.010186,0.000120
44.373312,0.004818,0.016808,-0.006975
44.413468,0.030169,-0.002285,-0.007135
44.443586,0.033985,0.013561,-0.006361
44.473703,0.018666,0.017491,-0.008788
44.513859,0.054605,0.022375,0.001444
44.543976,0.038867,0.025036,0.006322
44.574098,0.028038,-0.002732,0.013367
44.614254,0.044756,0.028134,0.023329
44.644371,0.018747,-0.001221,0.014793
44.674488,-0.083201,-0.037538,0.010500
44.714645,-0.089347,-0.026890,0.016137
44.744762,-0.149985,-0.093055,0.010102
44.774879,-0.178412,-0.057008,0.027089
44.815036,-0.056540,-0.022644,-0.031516
44.845153,-0.031591,0.004047,-0.010224
44.875270,-0.056996,-0.023050,-0.008924
44.915426,-0.036984,-0.027312,-0.033160
44.945544,-0.054712,-0.033462,-0.016556
44.975661,-0.138991,-0.036107,-0.003300
45.015817,-0.139655,-0.095792,0.009612
45.045934,-0.155576,-0.108193,0.001909
45.076052,-0.043912,-0.056245,-0.019964
45.106169,0.034624,0.046946,-0.052740
45.146325,0.154589,0.086180,-0.056846
45.176442,0.141986,0.076979,-0.071126
45.206560,0.043347,0.032171,-0.054239
45.246716,-0.059637,0.020097,-0.013447
45.276833,-0.048311,0.000634,-0.004003
45.306950,-0.034791,-0.021054,0.018172
45.347107,0.007182,-0.019005,-0.000038
45.377224,0.033187,0.005779,-0.001425
45.407341,0.007504,-0.006224,-0.004196
45.447498,0.014378,0.028779,-0.017788
45.477615,0.018225,0.021543,-0.012217
45.507732,0.040225,0.024042,-0.003361
45.547888,0.024410,0.043345,-0.016599
45.578006,0.031468,0.025540,0.000080
45.608123,0.083881,0.040280,-0.013757
45.648279,0.119382,0.057339,-0.055889
45.678397,0.155528,0.051109,-0.041248
45.708514,0.077989,0.010416,-0.013820
45.748670,-0.099300,-0.081094,0.020746
45.778787,-0.104151,-0.076072,0.023280
45.808905,-0.016874,0.012772,0.006115
45.849061,0.019748,0.021934,-0.003704
45.879178,0.019398,-0.002756,0.002761
45.909295,0.027940,0.039970,0.010404
45.939413,0.062547,0.057894,0.003617
45.979569,0.056971,0.008304,0.000249
46.009686,-0.038334,-0.011523,0.003204
46.039804,-0.022450,-0.012577,0.004747
46.079960,-0.018928,-0.014092,0.007176
46.110077,0.025974,-0.030377,-0.009939
46.140194,0.141443,0.049247,-0.157495
46.180351,0.205227,0.079688,-0.074899
46.210468,0.018435,-0.049349,-0.041183
46.240585,0.026879,-0.003363,-0.023794
46.280742,0.073441,0.045873,-0.045363
46.310859,0.049940,0.051698,-0.026840
46.340976,-0.044088,-0.002184,0.005468
46.381132,-0.083067,-0.070902,0.012122
46.411250,-0.012423,0.004530,-0.006613
46.441367,0.068617,0.040599,-0.008331
46.481523,0.002306,0.015909,0.003276
46.511641,-0.031392,-0.025743,0.012201
46.541758,-0.000128,0.007682,-0.005006
46.581911,0.041835,-0.005222,-0.018776
46.612028,-0.052188,-0.018285,0.000697
46.642146,-0.082592,-0.034289,0.018772
46.682302,-0.083217,-0.036673,0.016610
46.712419,0.015435,0.002133,0.006360
46.742536,0.014978,-0.001591,0.004118
46.772654,-0.028875,-0.010607,0.015255
46.812810,-0.028082,-0.018908,0.022316
46.842927,-0.020208,-0.005233,0.012355
46.873045,-0.017482,0.004720,0.008967
46.913201,-0.033709,-0.027942,0.011776
46.943318,-0.020772,-0.021119,0.010688
46.973435,-0.040290,-0.024627,0.002753
47.013592,-0.042375,-0.021566,0.002107
47.043709,-0.066111,-0.025466,-0.007350
47.073826,-0.108361,-0.033982,-0.004277
47.113983,-0.011829,-0.000241,-0.022109
47.144100,0.046501,0.015246,-0.031935
47.174217,-0.014615,-0.003144,-0.047502
47.214373,-0.021476,0.031521,-0.062321
47.244491,-0.070751,-0.000634,-0.036180
47.274608,-0.058071,-0.021658,-0.003231
47.314764,0.028224,-0.007115,0.009273
47.344882,0.011130,0.012867,0.010760
47.374999,0.002866,0.006999,-0.003173
47.415155,0.014501,0.025847,0.015009
47.445272,0.009121,-0.006995,0.027961
47.475390,-0.050054,-0.053780,0.020490
47.515546,-0.061370,-0.041037,-0.005722
47.545663,-0.020338,-0.005352,-0.035800
47.575780,-0.004067,-0.008050,-0.024655
47.605897,-0.064367,-0.043752,0.007666
47.646053,-0.150696,-0.069027,0.036252
47.676170,-0.046895,-0.033149,0.018504
47.706288,0.024832,0.006010,-0.016681
47.746444,0.037535,0.018747,-0.009233
47.776561,-0.031150,-0.003966,-0.009624
47.806679,-0.039649,0.008230,-0.002708
47.846835,0.065076,0.055259,-0.012805
47.876952,0.117433,0.085494,-0.010754
47.907069,0.074182,0.060403,0.010389
47.947226,-0.003346,0.009401,0.006196
47.977343,0.066275,0.036581,0.012613
48.007460,0.098545,0.053786,0.014842
48.047617,0.031202,0.035736,0.014048
48.077734,0.072039,0.063079,0.001467
48.107851,0.101913,0.071767,-0.019548
48.148008,0.077603,0.056894,-0.013194
48.178125,0.041621,0.037868,-0.001773
48.208242,0.010103,-0.010075,0.006448
48.248399,0.051677,0.023952,0.002705
48.278516,0.047861,0.014059,-0.004253
48.308633,0.013095,-0.000757,-0.008171
48.348789,-0.043463,-0.038952,-0.017135
48.378907,-0.034142,-0.044387,-0.012244
48.409024,0.007109,-0.000720,-0.008644
48.449180,-0.022850,-0.018343,0.001044
48.479298,-0.049248,-0.038324,-0.000120
48.509415,-0.044896,-0.044849,0.007460
48.539532,-0.032486,-0.045028,0.013585
48.579693,-0.020700,-0.039129,0.006463
48.609811,-0.043335,-0.043786,0.010134
48.639928,-0.037352,-0.013848,0.005498
48.680084,0.006225,-0.005431,-0.000547
48.710202,0.028894,0.015699,0.000802
48.740319,0.006495,0.002683,-0.000391
48.780475,-0.044918,-0.035382,0.004200
48.810593,-0.037998,-0.033745,0.014749
48.840710,-0.032227,-0.027513,0.011007
48.880866,-0.019695,-0.005855,0.002203
48.910983,-0.013463,-0.001926,-0.001309
48.941101,-0.028600,-0.021524,-0.001398
48.981257,-0.025307,-0.022979,-0.008795
49.011374,0.002435,0.015256,-0.016326
49.041492,-0.015918,-0.003457,-0.005726
49.081648,-0.054110,-0.050307,0.020237
49.111765,-0.021806,-0.012453,0.004469
49.141882,0.015388,0.004112,-0.005301
49.182039,-0.007783,0.008171,-0.012027
49.212156,-0.025791,0.008315,-0.004807
49.242273,-0.019472,0.019463,-0.011568
49.272391,-0.005604,0.010470,-0.015201
49.312547,-0.017028,-0.018012,0.002809
49.342664,-0.036143,-0.030643,0.011106
49.372782,-0.037497,-0.020193,0.012020
49.412938,-0.014363,-0.028734,0.004312
49.443055,0.005624,0.008006,-0.002384
49.473172,0.005395,0.008845,-0.017414
49.513329,-0.010383,-0.000195,-0.013706
49.543446,-0.000125,0.006521,-0.009733
49.573558,-0.045637,-0.029937,-0.000816
49.613715,-0.000995,-0.006915,0.003128
49.643832,0.022274,0.000537,0.001245
49.673949,-0.009302,-0.013628,0.008492
49.714106,0.014948,0.017685,0.003365
49.744223,0.072798,0.048182,-0.012269
49.774340,0.054913,0.038416,-0.017999
49.814497,-0.013409,-0.010000,0.003691
49.844614,-0.041064,-0.029966,0.005792
49.874731,-0.014277,-0.008536,-0.001796
49.914887,0.030531,0.013885,-0.007228
49.945005,-0.010316,-0.011759,-0.005072
49.975122,-0.039359,-0.052367,0.004196
50.015278,0.010731,0.006473,-0.004200
50.045396,-0.005916,-0.008620,-0.007694
50.075513,-0.015239,-0.004165,0.002365
50.115669,-0.005534,0.003153,0.003237
50.145787,0.014361,-0.001954,0.003992
50.175904,-0.017132,-0.006743,0.010302
50.206021,-0.025952,-0.010974,0.003430
50.246178,-0.059518,-0.030960,-0.001394
50.276295,-0.009661,-0.017206,0.010539
50.306412,0.010496,0.015509,0.001476
50.346568,0.003479,0.002190,-0.005763
50.376686,0.023840,-0.001312,-0.009206
50.406803,0.005251,-0.019271,0.000124
50.446959,-0.045991,-0.023532,0.009568
50.477077,-0.061432,-0.038029,0.012259
50.507194,-0.046575,-0.041288,0.013914
50.547350,0.037171,0.033141,-0.012013
50.577468,0.029207,0.006320,-0.004482
50.607585,-0.039489,-0.026157,0.004176
50.647741,-0.041494,-0.018807,0.001645
50.677859,0.025422,0.008092,0.002295
50.707976,0.040510,0.019947,-0.004162
50.748132,0.054311,0.025901,-0.006967
50.778250,0.024562,0.007914,-0.004663
50.808367,-0.024246,-0.022680,0.001863
50.848523,-0.005717,0.003703,0.003895
50.878640,0.004158,-0.012636,-0.001380
50.908758,0.016462,0.012267,-0.008959
50.948914,-0.007885,-0.003574,-0.008020
50.979031,-0.004547,-0.001590,-0.004382
51.009149,0.006339,0.007430,0.002739
51.039266,0.003496,0.006807,-0.003930
51.079422,0.043035,0.012343,-0.008751
51.109540,0.013403,0.004940,-0.000831
51.139657,-0.000973,0.003985,0.003275
51.179813,-0.001083,0.005047,-0.005548
51.209931,0.002737,0.002145,-0.002829
51.240048,0.028922,0.010996,-0.001410
51.280204,0.049436,0.011314,0.000116
51.310322,0.029711,-0.003194,-0.002770
51.340439,0.008431,0.000777,0.007677
51.380595,0.005351,0.004315,0.003943
51.410713,0.026784,0.045571,-0.013997
51.440830,0.016388,0.028903,-0.016802
51.480986,-0.050669,-0.052197,0.000087
51.511103,0.022172,0.015002,-0.010326
51.541221,0.033402,0.022737,-0.004046
51.581378,-0.058141,-0.042260,0.011467
51.611495,-0.070521,-0.045521,0.010511
51.641613,-0.010524,-0.041957,-0.001007
51.681769,-0.008244,-0.014869,0.005194
51.711886,-0.018062,-0.003740,0.008739
51.742004,-0.021469,-0.028881,-0.001881
51.782160,0.001369,-0.004169,-0.005010
51.812277,-0.001299,0.010394,0.001975
51.842395,0.012912,0.015024,0.004537
51.872512,0.008977,0.007831,-0.004387
51.912668,0.005574,0.003747,-0.006393
51.942786,0.013272,0.011155,0.002173
51.972903,0.009552,0.009100,0.006309
52.013059,0.034174,0.009799,0.000716
52.043177,0.014180,-0.006805,0.004686
52.073294,-0.015343,-0.019938,0.004326
52.113450,-0.009270,0.002472,-0.007329
52.143568,-0.001361,-0.007306,-0.008382
52.173685,-0.031001,-0.019293,0.005908
52.213841,-0.022106,0.005500,0.005422
52.243958,-0.000818,-0.005906,-0.004239
52.274076,-0.026673,-0.035230,-0.002135
52.314232,-0.060195,-0.034776,0.010649
52.344349,-0.030270,-0.023608,0.014425
52.374467,-0.070534,-0.068039,0.010057
52.414623,-0.089857,-0.064285,0.018018
52.444740,-0.044156,-0.026117,0.012938
52.474858,0.024827,0.010397,0.001968
52.515014,0.008411,-0.004638,0.005775
52.545131,-0.055684,-0.034348,0.014433
52.575248,-0.037765,-0.034201,0.014516
52.615404,-0.008516,-0.008307,0.008920
52.645521,0.015194,0.009809,0.001275
52.675639,0.006069,-0.009631,0.001169
52.715795,-0.017237,0.009710,-0.027441
52.745912,0.039824,0.071645,-0.040674
52.776030,0.051360,0.069716,-0.024722
52.806147,-0.032183,-0.023097,0.003425
52.846303,-0.066861,-0.071893,0.027517
52.876421,-0.029867,-0.052685,0.023586
52.906538,0.002754,-0.030793,0.012931
52.946694,0.029126,0.012987,0.002377
52.976812,-0.012413,-0.029916,-0.005817
53.006929,-0.036513,-0.033059,-0.004238
53.047085,0.016897,0.024408,0.001550
53.077203,0.016855,0.017848,-0.015579
53.107320,-0.011865,0.010892,-0.011350
53.147476,-0.028429,-0.018067,-0.003539
53.177594,0.044991,0.004464,-0.012653
53.207711,0.076267,0.033845,-0.011677
53.247867,0.000095,-0.002939,0.001562
53.277985,-0.004390,0.007340,-0.002176
53.308102,-0.003607,0.001164,-0.005529
53.348258,0.011807,0.001148,-0.002083
53.378376,-0.005861,0.001464,-0.006787
53.408493,-0.034133,-0.001732,0.005304
53.448649,-0.092232,-0.053542,0.017950
53.478767,-0.056140,-0.020868,0.005120
53.508884,0.032506,0.016510,-0.001573
53.549040,0.047417,0.034485,0.005401
53.579159,-0.010972,-0.005690,0.011673
53.609276,-0.054728,-0.037373,0.018529
53.639393,-0.040282,-0.010406,0.003539
53.679550,-0.035612,-0.001169,0.001923
53.709667,-0.066567,-0.011598,0.003396
53.739784,-0.085994,-0.048772,0.003787
53.779941,-0.029846,0.009042,-0.006678
53.810058,0.124958,0.100089,-0.043892
53.840175,0.125178,0.059908,-0.047057
53.880332,-0.010507,0.022211,-0.027337
53.910449,-0.100993,-0.063499,-0.001060
53.940566,-0.129936,-0.089827,0.018391
53.980723,-0.096758,-0.042688,0.005134
54.010840,-0.055465,-0.026901,-0.004567
54.040957,-0.043768,-0.031965,-0.010991
54.081114,-0.017649,0.000493,-0.014302
54.111231,0.003098,0.007470,-0.006155
54.141349,0.019651,0.016689,-0.019746
54.181505,0.055515,0.036181,-0.019888
54.211622,0.013852,0.024402,-0.011276
54.241740,-0.008470,0.006327,-0.010517
54.281896,-0.030916,-0.012789,-0.004255
54.312013,-0.056507,-0.030231,0.009293
54.342131,-0.011701,0.001324,0.005653
54.382287,0.037003,0.022665,-0.014357
54.412404,0.016837,0.001705,-0.013048
54.442522,0.016641,0.018981,-0.016520
54.472639,0.079705,0.031904,-0.017504
54.512795,0.092904,0.044795,-0.026776
54.542913,0.040935,0.015919,-0.024977
54.573029,0.031853,0.017039,-0.032139
54.613185,0.051412,0.092360,-0.110916
54.643303,0.068389,0.132138,-0.103076
54.673420,0.022692,0.078123,-0.060600
54.713576,-0.106354,-0.026553,0.009548
54.743694,-0.074080,-0.074502,0.034645
54.773811,0.002387,-0.044672,0.034438
54.813967,-0.009712,-0.021889,0.026529
54.844085,-0.060317,-0.060985,0.035102
54.874202,-0.070599,-0.076297,0.034897
54.914358,-0.033209,-0.040309,0.011127
54.944476,0.006066,0.001727,-0.007086
54.974593,0.023266,0.042540,-0.006459
55.014750,-0.013442,0.031759,-0.014751
55.044867,0.010438,0.012689,-0.018807
55.074984,-0.006934,-0.007562,-0.006042
55.115141,-0.059068,-0.030194,0.021598
55.145258,-0.019576,-0.016799,0.032137
55.175375,0.050604,0.001960,0.022393
55.215532,0.114222,0.038594,0.024258
55.245649,0.051209,0.014948,0.028433
55.275766,0.045900,0.009716,0.022033
55.315923,0.051765,0.053770,-0.001174
55.346040,0.019265,0.028035,0.001210
55.376157,0.034131,0.024973,-0.006695
55.406275,0.057863,0.031924,-0.014643
55.446431,0.037922,0.005420,-0.004221
55.476548,-0.052599,-0.047935,-0.001026
55.506666,-0.050328,-0.040319,0.013978
55.546822,-0.011448,0.005373,-0.010699
55.576939,-0.012531,-0.024954,-0.009595
55.607057,-0.064393,-0.057471,0.001960
55.647213,-0.064912,-0.024309,0.000921
55.677330,-0.034217,0.010802,0.001291
55.707448,-0.014330,-0.021384,0.009682
55.747604,-0.011937,-0.006369,-0.003573
55.777722,0.039553,0.031743,-0.003450
55.807839,0.035761,0.019496,0.001645
55.847995,0.039455,0.028620,-0.004626
55.878113,0.028557,0.023697,-0.011948
55.908230,0.006527,-0.001788,-0.009495
55.948386,-0.015146,0.003303,-0.007745
55.978504,-0.013222,0.001356,0.000301
56.008621,-0.048018,-0.009060,-0.001651
56.048777,-0.050862,-0.041257,0.003076
56.078895,0.001783,0.001090,0.011474
56.109012,0.034532,0.009373,0.006164
56.139129,0.015968,0.016595,0.001479
56.179286,0.007256,-0.011901,0.002300
56.209403,0.000200,0.002803,-0.006635
56.239520,0.031749,0.034989,-0.027655
56.279677,0.028861,0.019734,-0.031190
56.309794,0.004026,0.007215,-0.012032
56.339912,-0.013166,0.006147,0.003029
56.380068,-0.029231,-0.023481,0.009761
56.410185,-0.079347,-0.035918,0.019177
56.440303,-0.067657,-0.021894,0.009795
56.480459,0.001719,-0.006523,0.001405
56.510576,-0.000784,-0.015693,0.003795
56.540694,-0.015927,-0.007981,0.011405
56.580851,-0.012329,0.014150,-0.000370
56.610968,-0.023832,-0.016714,-0.000479
56.641086,-0.033042,-0.021721,-0.001487
56.681242,0.005373,-0.012558,-0.015965
56.711360,0.017024,0.006369,-0.013721
56.741477,0.006353,0.012351,-0.004641
56.781633,0.010234,0.028737,-0.024806
56.811751,-0.072496,0.000777,-0.022548
56.841868,-0.070365,-0.044892,-0.005475
56.882024,0.046281,0.007722,0.012969
56.912142,0.090897,0.031572,0.001857
56.942259,0.156072,0.096933,-0.010884
56.982415,0.227797,0.129933,-0.011382
57.012533,-0.003428,-0.080021,0.012527
57.042650,-0.125934,-0.071325,0.030291
57.072767,-0.031538,0.006302,0.038111
57.112924,-0.051539,-0.063054,0.023611
57.143041,-0.091430,-0.112474,0.048349
57.173159,-0.118235,-0.100771,0.053512
57.213315,0.000424,-0.029091,0.000090
57.243432,0.016809,0.016136,0.007524
57.273550,-0.076321,-0.024743,0.022335
57.313706,0.051227,-0.002080,0.002940
57.343823,0.005616,-0.024594,0.005032
57.373941,0.027647,0.011601,-0.003961
57.414097,0.075386,0.033990,-0.003338
57.444215,-0.005791,0.001832,0.000714
57.474332,0.007205,0.005784,0.013026
57.514488,0.075800,0.006107,-0.006352
57.544606,0.081311,0.024488,-0.015171
57.574723,0.185130,0.083159,-0.013109
57.614879,-0.054008,-0.014701,0.002680
57.644997,-0.126487,-0.053592,0.017053
57.675114,-0.088655,-0.040115,-0.006073
57.715270,0.030913,0.022325,-0.008775
57.745388,0.041187,0.025290,-0.000063
57.775505,-0.034108,-0.007376,-0.005055
57.815662,-0.054547,-0.024996,0.013661
57.845779,-0.107746,-0.058949,0.021793
57.875896,-0.071870,-0.048675,0.005608
57.906014,-0.007227,-0.014010,-0.004471
57.946170,0.053612,0.048033,-0.021965
57.976287,0.037164,0.011032,0.004892
58.006405,-0.051630,-0.024906,0.019573
58.046561,-0.006541,0.001205,0.017363
58.076679,0.028426,0.009021,0.001139
58.106796,0.005816,0.003358,0.000361
58.146952,-0.022312,-0.018706,0.012713
58.177070,-0.021177,-0.001768,0.009661
58.207187,0.027946,0.013829,0.012096
58.247343,0.058832,0.058082,0.003906
58.277461,0.068022,0.042897,-0.016769
58.307578,0.083165,0.053289,-0.022729
58.347735,0.064893,-0.013885,-0.034040
58.377852,0.319779,0.174373,-0.065103
58.407969,0.296728,0.127572,-0.021587
58.448126,0.014670,0.008969,0.004152
58.478243,-0.017883,-0.014383,0.001335
58.508360,-0.076353,-0.065047,0.003585
58.548517,-0.067075,-0.036253,-0.003473
58.578634,-0.040408,-0.050695,-0.000747
58.608751,-0.050826,-0.024549,0.012463
58.648908,-0.043876,-0.038050,0.006915
58.679025,-0.076114,-0.057321,0.022884
58.709143,-0.054571,-0.068819,0.029099
58.749299,-0.040568,-0.076124,0.044903
58.779416,-0.061707,-0.057258,0.054699
58.809534,-0.085229,-0.070306,0.051317
58.839651,-0.133308,-0.079155,0.043080
58.879807,-0.105423,-0.074718,0.036342
58.909925,-0.119546,-0.055287,-0.002681
58.940042,-0.128201,-0.050210,-0.001836
58.980199,0.001140,-0.017852,0.004417
59.010316,0.009692,0.000244,0.011606
59.040433,-0.059528,-0.045749,0.008784
59.080590,-0.061045,-0.065562,0.008156
59.110707,0.002127,-0.011477,-0.000332
59.140824,-0.029586,0.010949,-0.005413
59.180981,-0.035344,-0.024305,0.005265
59.211098,-0.018956,-0.010728,0.011369
59.241216,0.001299,-0.003426,0.023389
59.281372,0.010247,0.014752,0.008804
59.311489,0.001952,0.011162,0.002719
59.341607,-0.009017,-0.020487,-0.008086
59.381763,-0.033912,-0.004181,-0.010440
59.411881,0.014512,0.029612,-0.019454
59.441998,0.012787,-0.005219,-0.018442
59.482154,-0.000049,0.012451,-0.008046
59.512272,-0.023574,-0.012108,-0.005506
59.542389,-0.029493,-0.015799,0.006323
59.572506,-0.020170,-0.010956,-0.005971
59.612663,0.000214,0.000358,-0.008459
59.642780,-0.005255,-0.012726,0.000966
59.672898,-0.010263,-0.018235,-0.003307
59.713054,-0.001205,-0.014743,-0.006156
59.743171,-0.001684,0.001954,-0.010213
59.773289,0.026768,0.015478,-0.006434
59.813445,0.009179,0.012646,-0.009644
59.843562,0.003653,-0.011032,0.000148
59.873680,0.004134,-0.006558,0.000553
59.913836,-0.009902,-0.004623,0.001928
59.943954,-0.001503,0.002099,0.005772
59.974071,0.009105,0.005815,-0.005070
60.014227,-0.006226,0.000521,-0.001050
60.044345,-0.013765,0.003679,0.000693
60.074462,0.002795,0.014426,0.000295
60.114619,0.024867,0.005608,-0.007711
60.144736,0.037473,0.039638,-0.013609
60.174853,0.022633,0.023976,-0.013401
60.215010,0.001806,0.010905,-0.004344
60.245127,-0.017160,-0.032237,-0.043000
60.275245,0.003600,-0.026844,-0.065266
60.315401,-0.060284,-0.035177,-0.017315
60.345518,-0.007801,-0.012957,0.006632
60.375636,0.003960,0.008161,-0.031118
60.415792,0.088385,-0.006879,0.029499
60.445909,-0.056747,-0.024276,0.020666
60.476027,-0.049005,-0.019382,0.078436
60.506144,0.160705,-0.076124,0.134475
60.546301,0.116136,-0.114741,0.082080
60.576418,0.010076,-0.127512,0.049137
60.606535,-0.155493,-0.195621,0.064194
60.646692,-0.085826,-0.164351,0.050821
60.676809,-0.043632,-0.118203,0.029222
60.706927,-0.059545,-0.168550,-0.052658
60.747083,-0.103057,-0.181691,-0.098749
60.777200,-0.154820,-0.241745,-0.083609
60.807318,-0.137769,-0.217745,-0.034478
60.847474,-0.113507,-0.115831,-0.114536
60.877592,-0.078471,-0.135308,-0.143340
60.907709,-0.046821,-0.130127,-0.197675
60.947865,0.071108,-0.196833,-0.154445
60.977983,0.018269,-0.160041,-0.052718
61.008100,0.080708,-0.231126,0.027227
61.048257,-0.020901,-0.282209,-0.041145
61.078374,-0.069437,-0.336919,-0.052856
61.108491,-0.045802,-0.452674,-0.054863
61.148648,-0.154825,-0.356449,-0.106218
61.178765,-0.047422,-0.545042,-0.130364
61.208883,0.290384,-0.762433,-0.134227
61.249039,0.394929,-0.601848,-0.061465
61.279156,0.143343,-0.190517,-0.024201
61.309274,-0.051550,0.097853,-0.005634
61.339391,0.042674,0.045948,0.001120
61.379548,0.142799,-0.172246,-0.017511
61.409665,-0.102978,-0.008261,-0.063034
61.439782,-0.198961,0.037708,-0.064678
61.479939,0.066374,-0.135854,0.001395
61.510056,0.074633,-0.147633,0.000868
61.540173,-0.176440,-0.029091,-0.083564
61.580330,-0.047175,-0.005657,-0.073315
61.610447,0.067965,-0.102810,-0.004141
61.640565,0.005029,0.035150,-0.004560
61.680721,-0.024313,0.143220,-0.026164
61.710839,0.080113,-0.038909,-0.009366
61.740956,0.032401,-0.071297,-0.002880
61.781112,-0.012574,0.064187,-0.004275
61.811230,0.061557,0.031766,-0.006531
61.841347,0.166733,-0.032902,-0.001544
61.881504,0.026015,0.100613,0.016097
61.911621,-0.190860,0.291244,-0.067270
61.941738,-0.191185,0.100734,-0.109830
61.981895,0.111909,-0.286568,-0.044603
