time_tick,gyr_X_value,gyr_Y_value,gyr_Z_value
0.007831,-0.360658,0.066040,0.042822
0.037952,-0.414576,-0.087732,0.066857
0.068073,-0.122523,-0.070844,-0.012385
0.108234,-0.037507,-0.062981,-0.075650
0.138355,-0.099685,-0.104565,-0.060173
0.168476,0.066957,-0.091179,-0.177698
0.208638,0.399576,-0.004865,-0.099796
0.238760,0.360918,-0.036627,-0.069824
0.268881,0.399599,0.021860,-0.135809
0.299001,0.429845,0.048838,-0.284360
0.339163,-0.059480,0.077138,-0.125893
0.369284,-0.326373,-0.085244,-0.123225
0.399405,-0.857836,-0.225784,-0.081038
0.439566,-0.483522,-0.271791,-0.053405
0.469687,0.362014,0.049437,-0.272336
0.499808,0.426935,0.029115,-0.162462
0.539969,0.183909,0.388983,-0.352365
0.570090,-0.146250,0.401249,-0.282845
0.600211,-0.587678,0.333743,0.049671
0.640372,-0.803120,0.557103,0.252114
0.670493,-0.631708,0.579846,0.423797
0.700614,-0.657738,0.435763,0.606359
0.740776,-1.059159,0.327837,0.785200
0.770896,-0.657676,1.158294,0.686344
0.801017,-0.849963,1.156490,0.443870
0.831138,-1.143631,0.579728,0.471665
0.871300,-0.714103,0.835617,0.536965
0.901421,-0.794487,0.993774,0.777943
0.931542,-0.487988,0.794170,0.616303
0.971703,-0.244903,0.428039,0.286003
1.001824,-0.445470,0.609089,0.517149
1.031945,-0.287388,0.502811,0.580382
1.072106,0.101839,0.362785,0.217464
1.102227,0.263561,0.161567,0.130715
1.132348,0.191353,0.001230,0.090648
1.172509,-0.156117,-0.156916,0.047210
1.202630,-0.035382,-0.283894,-0.030412
1.232751,0.078130,-0.310519,-0.145901
1.272913,0.298120,-0.428514,-0.235065
1.303034,0.414559,-0.236171,-0.042060
1.333154,0.009417,-0.019478,0.478611
1.373316,0.747605,-0.001373,-0.345058
1.403437,0.990831,-0.101377,-0.588698
1.433558,0.969443,-0.299708,-0.053633
1.473719,1.129875,-0.801749,-0.271993
1.503840,0.672774,-1.000171,-0.477405
1.533961,0.005041,-0.971732,-0.458193
1.574122,-0.494847,-0.887143,0.000168
1.604243,-0.380173,-0.886726,-0.098957
1.634364,-0.370474,-0.944535,-0.324882
1.674525,-0.299785,-0.570079,-0.194113
1.704646,0.036553,-0.380201,0.011583
1.734767,0.214800,-0.350318,0.052997
1.764888,0.129027,-0.306649,-0.072880
1.805050,0.136702,-0.114156,0.160678
1.835171,-0.078737,-0.121807,-0.010457
1.865292,-0.094986,-0.189245,-0.233664
1.905453,-0.170624,-0.013680,0.028904
1.935574,-0.151754,-0.015303,0.151291
1.965695,-0.003712,0.078278,0.042699
2.005856,0.213047,0.156007,-0.089218
2.035977,0.218887,0.336710,-0.143642
2.066098,0.193226,0.508703,-0.102274
2.106259,0.448688,0.488604,0.064631
2.136380,0.542495,0.600393,-0.094706
2.166501,-0.045547,0.523020,-0.079857
2.206663,-0.430446,0.392478,-0.164681
2.236784,-0.417475,-0.135904,-0.055709
2.266906,-0.616846,-0.299667,0.316556
2.307067,0.003937,0.524386,0.208335
2.337188,-0.015590,0.380901,0.149025
2.367309,-0.650313,0.391845,0.178665
2.407470,-0.511923,0.563031,0.026909
2.437591,-0.194457,1.519330,-0.033394
2.467712,-0.502946,1.632274,0.170808
2.497833,-0.522080,1.182946,0.115918
2.537994,-0.622906,0.730887,-0.135566
2.568115,0.038150,1.327131,0.213899
2.598236,-0.713749,1.188157,0.637279
2.638398,-1.339348,0.824460,0.482722
2.668518,-0.880851,0.504758,0.367881
2.698639,-0.834624,0.476313,0.520575
2.738801,-0.621890,0.614057,0.716264
2.768922,-0.199904,0.360253,0.876316
2.799043,-0.109235,0.301790,0.867579
2.839204,-0.106028,0.122876,1.067086
2.869325,0.159596,-0.022244,1.253162
2.899446,0.492923,0.156262,1.384557
2.939607,0.324491,0.119803,0.391898
2.969728,1.039601,0.056016,0.014341
2.999849,0.963261,-0.195459,-0.022887
3.040010,0.889767,-0.622871,-0.085963
3.070131,0.659058,0.179428,-0.760450
3.100252,1.576830,0.319665,0.196437
3.140414,1.624325,-0.143630,-0.437411
3.170535,1.347436,-0.129506,-1.180704
3.200656,1.560314,-0.086691,-1.524030
3.240816,2.071249,-0.471618,-0.509150
3.270937,1.875952,-0.731077,-0.662721
3.301058,0.482415,-0.478988,-0.402359
3.331179,-0.116048,-0.810655,-0.267468
3.371340,0.127934,-1.127782,-0.970976
3.401461,0.316013,-0.948539,-1.101299
3.431582,0.608993,-1.021887,-0.742306
3.471744,0.474130,-0.990012,-0.766161
3.501864,-0.311660,-0.895494,-0.867633
3.531985,-0.044744,-0.905233,-1.237124
3.572147,1.005161,-0.666842,-1.226149
3.602268,0.955284,-0.627836,-0.662194
3.632389,0.340375,-0.430153,-0.554913
3.672550,0.154139,-0.279645,-0.462613
3.702671,0.068852,-0.311041,-0.203289
3.732792,-0.283925,-0.230413,-0.151418
3.772953,-0.345632,-0.288299,-0.141347
3.803074,-0.327395,-0.204046,-0.105353
3.833195,0.042764,-0.157259,-0.231180
3.873357,0.271954,0.259796,-0.282677
3.903478,0.145434,0.147476,-0.253504
3.933598,0.254847,-0.014865,-0.355388
3.973760,0.535208,0.099822,-0.506189
4.003881,0.279251,0.001470,-0.386269
4.035252,-0.478597,0.051745,-0.052884
4.075413,-0.829047,-0.223968,0.083716
4.105534,-1.470763,-0.161815,0.023821
4.135655,-1.386006,0.481005,0.161882
4.175816,-0.414762,1.820462,0.217087
4.205937,-0.179163,2.326932,0.441584
4.236058,-0.212722,2.071021,0.390972
4.266178,-0.828210,1.193247,0.246546
4.306340,-0.260522,1.636913,0.707584
4.336461,0.785882,2.273294,0.831247
4.366582,0.560694,1.729382,0.659270
4.406743,-0.514778,0.834316,0.823094
4.436864,-1.089784,0.721160,1.125553
4.466985,-1.130733,0.535053,1.191082
4.507146,-1.022766,0.582156,1.059217
4.537267,-0.307081,0.559635,0.720758
4.567388,-0.146637,0.528494,0.643366
4.607549,0.227340,0.377023,0.407132
4.628920,0.299555,0.367007,0.352728
4.659041,0.492729,0.208073,0.277521
4.699203,0.610462,-0.145295,0.153361
4.729324,0.198517,-0.653596,-0.115128
4.759445,0.032521,-0.381833,0.008921
4.799606,0.960855,-0.448828,-0.086894
4.829727,0.655593,-0.406690,-0.786245
4.859848,0.719074,-0.018453,-1.293411
4.900009,0.693336,-1.035555,-1.458547
4.930130,0.641963,-0.626333,-0.869106
4.960251,0.629083,-0.980219,-0.609651
4.990372,0.558922,-0.862002,-0.882414
5.030534,0.291855,-1.344834,-1.171504
5.060655,-0.066698,-0.996053,-1.045863
5.090775,0.098775,-1.007139,-0.886746
5.130937,1.016640,-1.045787,-0.699665
5.161058,0.687107,-1.061649,-0.542922
5.191179,0.038995,-0.914740,-0.465718
5.231340,0.324062,-0.846463,-0.611628
5.261465,0.672068,-0.607241,-0.614614
5.291586,0.498436,-0.398376,-0.333635
5.331747,-0.042495,-0.535893,-0.116313
5.361868,0.078011,-0.530304,-0.014703
5.391989,0.378750,-0.219081,-0.006028
5.432151,-0.210385,-0.080462,0.122057
5.462272,-0.570125,-0.345268,0.180429
5.492393,-0.525587,-0.597671,0.212145
5.532554,0.120770,-0.088507,-0.088215
5.562675,0.003293,0.046601,0.039548
5.592796,0.040411,-0.137405,-0.035748
5.632957,0.337538,0.054523,-0.346266
5.663078,-0.010672,0.029463,-0.255353
5.693199,0.141328,-0.137290,-0.209577
5.733361,0.454770,0.006811,-0.260806
5.763482,0.257217,0.277640,-0.121467
5.793602,0.004481,0.217268,0.059713
5.823723,-0.990140,0.248917,0.222879
5.863885,-1.178496,0.839130,0.036994
5.894006,-0.422217,1.394234,0.238960
5.924127,0.370933,1.705607,0.601308
5.964288,-0.090184,1.613681,0.855538
5.994409,-1.109186,1.069568,0.835521
6.024530,-0.890172,1.010119,0.943402
6.064691,-0.549696,1.284438,1.039823
6.094812,-0.859524,1.133369,0.949336
6.124933,-1.273522,1.012811,1.077802
6.165095,-0.675803,1.100014,1.164886
6.195216,-0.568443,0.850185,1.112279
6.225337,-0.526310,0.941357,1.326745
6.265495,-0.603125,0.853533,1.068051
6.295616,-0.432044,0.957769,0.754997
6.325737,-0.172489,0.777297,0.496304
6.365898,0.235153,0.606034,0.452015
6.396019,0.114392,0.421209,0.356816
6.426140,-0.020965,0.094027,0.158832
6.466302,0.316067,-0.411273,-0.271288
6.496423,0.363730,-0.702509,-0.567058
6.526544,0.262161,-0.553397,-0.343173
6.566705,0.686576,-0.176065,0.052410
6.596826,0.797124,-0.904079,-1.244035
6.626947,0.529653,-0.477544,-1.540449
6.657068,-0.056897,-1.598146,-1.272648
6.697229,0.647361,-0.555164,-0.436848
6.727350,0.997178,-0.917770,-0.944092
6.757471,1.202929,-1.053452,-0.978344
6.797632,0.139832,-0.980900,-0.721459
6.827753,0.185937,-1.000724,-0.700592
6.857874,0.641246,-0.980302,-0.839608
6.898036,0.918750,-1.025030,-0.913612
6.928157,0.975388,-0.976451,-1.003052
6.958278,0.758487,-0.881996,-0.761607
6.998439,0.645551,-0.565263,-0.725413
7.028560,0.385461,-0.696227,-0.778896
7.058681,0.037413,-0.572554,-0.501582
7.098842,-0.359990,-0.631693,-0.236293
7.128963,-0.107260,-0.565370,-0.324260
7.159084,0.116082,-0.375337,-0.239169
7.199246,0.210501,-0.189789,-0.199501
7.229367,-0.174646,-0.179349,0.011676
7.259488,-0.533784,-0.352451,0.057724
7.299649,-0.253973,-0.327643,-0.152289
7.329770,-0.244903,-0.327786,-0.243521
7.359891,-0.062450,-0.090592,-0.266199
7.400052,0.609947,0.046862,-0.338945
7.430173,0.610802,0.019676,-0.478044
7.460294,0.517345,0.316326,-0.405268
7.500455,0.382206,0.286614,-0.247578
7.530577,0.491300,-0.049511,-0.248024
7.560697,0.187080,0.046597,-0.356380
7.590818,-0.012667,0.436596,-0.413438
7.630980,-0.448841,0.696872,0.090818
7.661101,-0.619839,0.857326,0.464604
7.691222,-0.085120,1.295678,0.750365
7.731383,0.051005,1.031757,0.891768
7.761504,-0.528384,0.808490,0.997473
7.791625,-0.383600,0.902789,0.993490
7.831786,0.569373,1.368933,0.798133
7.861907,-0.008531,0.926682,0.796741
7.892028,-0.890248,0.973303,1.071219
7.932190,-0.585741,0.843816,1.292858
7.962311,-0.433771,0.678484,1.264004
7.992432,-0.658570,0.667151,1.591327
8.035068,-0.766060,0.615764,1.592979
8.075229,-0.162950,0.783563,1.242646
8.105350,0.011063,0.768476,1.051945
8.135471,0.050089,0.612405,0.808116
8.175632,1.048235,0.936679,0.249328
8.205753,0.606280,0.410341,0.158217
8.235874,0.346694,0.003007,-0.004732
8.265995,0.032815,-0.404765,-0.238744
8.306157,0.257787,-0.566099,-0.586428
8.336278,0.565284,-0.181787,-0.254923
8.366399,0.793446,-0.632007,-0.619632
8.406560,0.805953,-0.255787,-1.628910
8.436681,0.243904,-1.067894,-1.826076
8.466802,0.388430,-0.755687,-1.537122
8.506963,0.864747,-0.695940,-1.230221
8.537084,0.084147,-0.785446,-1.181363
8.567205,-0.376492,-0.789267,-1.011933
8.607366,-0.204725,-0.859077,-1.006095
8.627467,-0.228176,-0.989591,-1.172317
8.667629,-0.093786,-1.145377,-1.274428
8.697750,0.359882,-1.108244,-0.754357
8.727871,0.408297,-0.999437,-0.420952
8.768032,0.010150,-0.772945,-0.508385
8.798153,0.137574,-0.653583,-0.650941
8.828274,0.367147,-0.682456,-0.376265
8.868435,0.104888,-0.340368,-0.213264
8.898556,-0.139797,-0.165116,-0.266259
8.928677,-0.048561,-0.511436,-0.147113
8.968838,-0.410604,-0.599538,0.108816
8.998959,-0.314232,-0.496137,-0.062526
9.029080,-0.179086,-0.319148,-0.133209
9.069242,-0.048112,-0.099890,-0.201959
9.099363,0.249984,-0.120495,-0.245130
9.129484,0.467845,0.134834,-0.213597
9.169645,0.536127,0.326188,-0.212220
9.199766,0.382208,0.070200,-0.228351
9.229887,0.245090,0.064780,-0.318229
9.270048,-0.244285,0.219524,-0.292139
9.300169,-0.566280,0.193651,0.009417
9.330290,-0.482874,0.119740,0.116197
9.370451,-0.213322,0.196946,0.065985
9.400572,-0.434592,0.626288,0.201632
9.430693,-0.787238,1.037263,0.286932
9.460814,-0.566428,1.506249,0.431588
9.500976,0.171299,1.125368,0.520104
9.531097,-0.493083,0.635286,0.781336
9.561218,-1.152175,0.722035,1.079873
9.601379,0.004507,1.615205,1.025916
9.631500,0.754125,1.548579,0.942657
9.661621,0.357442,1.395423,1.169299
9.701782,-0.008250,1.245809,1.429435
9.731903,-0.024162,1.081098,1.428174
9.762024,-0.133560,0.924403,1.400276
9.802186,-0.235272,0.673774,1.355872
9.832307,-0.223166,0.704149,1.306230
9.862428,-0.188030,0.487896,1.162041
9.902589,-0.083826,0.456633,0.706344
9.932710,0.043520,0.333482,0.594421
9.962831,-0.048575,-0.003062,0.508059
10.002992,-0.049433,-0.234114,0.234587
10.033113,0.072832,-0.360283,-0.063821
10.063234,-0.011722,-0.532036,-0.378124
10.103395,0.272733,-0.467932,-0.305189
10.133516,0.587292,-0.579422,-0.320848
10.163637,0.285763,-0.099981,-1.270765
10.203799,0.377170,-0.621989,-1.499648
10.233920,-0.105033,-0.762734,-1.102940
10.264041,0.710506,-0.533833,-0.832610
10.304202,0.628279,-0.697033,-1.142209
10.334323,0.280820,-0.699411,-1.325623
10.364444,-0.128073,-0.929308,-1.160246
10.394565,-0.153087,-1.085379,-0.841950
10.434726,-0.158270,-1.202187,-0.543171
10.464847,-0.021890,-0.979469,-0.676360
10.494968,0.250556,-0.862000,-0.815022
10.535129,0.480948,-0.851485,-0.869485
10.565250,0.202256,-0.814592,-0.806290
10.595371,0.168572,-0.715606,-0.577616
10.635533,0.435508,-0.640651,-0.373085
10.665654,0.152939,-0.631252,-0.276584
10.695775,-0.267961,-0.571247,-0.162262
10.735936,-0.621745,-0.618862,-0.059194
10.766057,-0.677055,-0.563600,-0.073596
10.796178,-0.458218,-0.305019,-0.013810
10.836339,-0.231697,-0.115823,0.145143
10.866460,-0.250072,-0.225638,0.215647
10.896581,-0.405392,-0.369799,0.261335
10.936742,0.125998,-0.178740,-0.050755
10.966863,0.311761,0.038985,-0.066431
10.996984,0.211054,-0.108544,-0.113647
11.037146,0.454001,0.071248,-0.351298
11.067267,0.298876,-0.007919,-0.397959
11.097388,0.172725,-0.038049,-0.417961
11.127509,0.518559,0.258153,-0.464148
11.167670,0.807310,0.305102,-0.452861
11.197791,-0.015693,0.078769,-0.124520
11.227912,-0.468901,0.130953,-0.056832
11.268076,-0.642222,0.787964,0.099173
11.298197,-0.673967,1.164882,0.393017
11.328318,-0.471209,1.571872,0.711017
11.368479,-0.257506,1.193074,1.017690
11.398600,-0.284503,0.796704,0.958905
11.428721,-0.399432,0.998237,0.894765
11.468883,0.056556,1.493461,0.974090
11.499004,0.116141,1.425811,1.031229
11.529125,-0.236719,1.311423,1.118411
11.569286,-0.312115,1.213519,1.438592
11.599407,-0.253628,1.057412,1.589384
11.629528,-0.303435,0.970459,1.575183
11.669689,-0.393019,0.669027,1.482510
11.699810,-0.485468,0.495004,1.279880
11.729931,-0.383738,0.472667,0.924096
11.770092,-0.183180,0.467781,0.531746
11.800213,-0.208510,0.293270,0.413535
11.830334,-0.191075,0.001865,0.325801
11.870496,-0.215995,-0.355445,0.211706
11.900617,-0.160131,-0.553451,-0.079856
11.930738,-0.094931,-0.657128,-0.509003
11.960858,0.033299,-0.482006,-0.598805
12.001020,0.863995,-0.466583,-0.426998
12.037396,0.884883,-0.088108,-1.378137
12.067517,0.839042,-0.555456,-1.397478
12.107678,0.209171,-0.682614,-0.948956
12.137799,0.904594,-0.609746,-0.696152
12.167920,0.415384,-0.871203,-0.932989
12.208081,-0.265712,-0.840637,-0.911541
12.238202,-0.598298,-1.024967,-0.842349
12.268320,-0.359432,-1.057173,-0.783959
12.308482,0.075840,-1.016638,-0.787651
12.338602,0.238155,-0.889205,-0.914111
12.368723,0.202392,-0.922838,-0.754278
12.408885,0.368828,-0.585875,-0.661143
12.439006,0.479305,-0.396411,-0.718563
12.469127,0.869683,-0.394297,-0.792552
12.509288,0.947308,-0.652380,-0.480632
12.539409,0.697902,-0.727285,-0.360917
12.569530,0.388348,-0.440329,-0.287418
12.599651,0.305409,-0.206807,-0.306348
12.629802,0.181189,-0.176091,-0.200648
12.659923,-0.109758,-0.197928,0.035384
12.700084,-0.161902,-0.146719,0.276483
12.730205,0.007538,-0.101519,0.189517
12.760326,-0.158535,-0.407577,0.196800
12.800488,-0.504809,-0.378234,0.095484
12.830609,-0.336487,-0.129711,-0.018002
12.860729,-0.095158,-0.201087,-0.039813
12.900891,0.085838,-0.231773,-0.368644
12.931012,0.099796,-0.050079,-0.380776
12.961133,-0.048173,-0.165211,-0.322001
13.001294,0.049886,-0.038071,-0.331294
13.031415,0.134825,0.190761,-0.390583
13.061536,0.222552,0.175485,-0.250118
13.091657,0.104721,0.230478,0.020911
13.131818,0.323891,0.787363,0.063713
13.161939,0.329515,1.138593,0.208349
13.192060,0.081630,1.158622,0.373442
13.232221,-0.411712,1.160649,0.627446
13.262342,-0.344877,0.947534,0.870699
13.292463,-0.434550,0.329639,0.830729
13.332625,-0.716975,0.370498,0.776756
13.362746,-0.107469,1.325887,0.782529
13.392867,0.834194,1.501376,0.689754
13.433028,0.427307,0.917109,0.780640
13.463149,-0.314245,0.816820,0.918809
13.493270,-0.357961,0.633931,1.007400
13.533431,-0.124886,0.530448,0.947987
13.563552,-0.180955,0.484349,1.005863
13.593673,-0.437803,0.557898,1.082667
13.633834,-0.154095,0.587458,0.991121
13.663955,-0.125893,0.553214,0.892024
13.694076,-0.222703,0.551072,0.701954
13.734238,-0.096470,0.355879,0.572669
13.764359,-0.087323,0.327002,0.634664
13.794480,-0.161963,0.191914,0.496572
13.834641,-0.165041,0.241853,0.244253
13.864762,-0.238934,0.136064,0.133764
13.894883,-0.199903,0.025232,-0.044782
13.925004,-0.062287,-0.066925,-0.037463
13.965165,0.119222,-0.428127,-0.256808
13.995286,-0.001054,-0.799235,-0.505602
14.025407,0.046879,-0.624483,-0.439780
14.065568,0.371355,-0.183165,-0.086383
14.095689,0.354076,-0.458919,-1.025673
14.125810,0.198148,-0.942582,-1.349442
14.165972,-0.164014,-0.739411,-0.763378
14.196093,-0.127075,-0.427650,-0.314113
14.226213,0.458874,-0.248036,-0.771495
14.266379,0.775601,-0.518978,-1.333534
14.296500,0.111014,-0.964271,-1.206342
14.326621,-0.334232,-0.919570,-0.523369
14.366782,0.106217,-0.710257,-0.345480
14.396903,0.959442,-0.536829,-0.611732
14.427024,0.836118,-0.459888,-0.594311
14.467185,-0.147809,-0.532507,-0.501327
14.497306,0.039222,-0.421362,-0.443337
14.527427,0.364926,-0.352470,-0.436243
14.567589,0.362251,-0.539254,-0.487675
14.597709,0.186729,-0.714234,-0.303006
14.627830,0.145119,-0.555118,-0.153861
14.667992,0.282068,-0.402878,-0.098228
14.698113,0.186840,-0.357680,-0.069441
14.728234,0.057118,-0.217014,0.043856
14.758355,-0.022922,-0.267197,0.070214
14.798516,-0.232434,-0.344496,0.051861
14.828637,-0.171458,-0.338592,-0.014449
14.858758,-0.003354,-0.259654,-0.028183
14.898919,-0.110399,-0.312212,-0.037609
14.929040,-0.156191,-0.328492,0.022820
14.959161,-0.044943,-0.330280,0.018564
14.999322,-0.007631,-0.485673,-0.042199
15.029443,-0.099651,-0.301063,-0.083895
15.059564,-0.091876,-0.064824,0.015005
15.099726,-0.169233,-0.229148,0.024515
15.129847,-0.086255,-0.144408,0.023709
15.159968,-0.008825,-0.081003,0.025924
15.200129,-0.140913,-0.230457,-0.116780
15.230250,0.139068,-0.050012,-0.267127
15.260366,0.226835,0.078893,-0.303508
15.300527,0.004175,-0.048833,-0.241061
15.330648,0.268473,0.115175,-0.371664
15.360769,0.649067,0.254236,-0.456695
15.400930,0.324342,0.032519,-0.106267
15.431051,0.160387,0.257415,-0.118983
15.461172,0.219262,0.384876,-0.203337
15.501334,-0.048123,0.015685,-0.160351
15.531455,-0.186447,-0.022644,-0.076619
15.561576,-0.189729,0.158255,0.005685
15.591697,-0.205984,0.266591,0.120137
15.631858,-0.357927,0.255301,0.324440
15.661979,-0.491339,0.255280,0.425032
15.692100,-0.458838,0.620004,0.501237
15.732261,-0.085566,1.094347,0.732571
15.762382,-0.085638,1.190455,0.837314
15.792503,-0.485744,1.255987,0.923037
15.832664,-0.877514,1.855240,1.069749
15.862785,-0.539081,1.900901,0.999071
15.892906,-0.441859,1.509211,0.951081
15.933068,-0.980328,0.746077,1.036057
15.963189,-1.283017,0.646409,1.344222
15.993310,-0.701961,0.985147,1.459735
16.037206,-0.461863,0.863401,1.418679
16.067327,-0.712441,0.874772,1.450890
16.107488,-0.383732,0.770909,1.246386
16.137609,-0.457431,0.438075,1.091943
16.167730,-0.826979,0.073590,1.001920
16.207891,-0.492531,0.185095,0.831705
16.238012,-0.018444,0.297127,0.613838
16.268134,-0.265636,0.082422,0.470200
16.308296,-0.502899,-0.064286,0.183846
16.338417,-0.195872,-0.072446,0.035357
16.368537,-0.163485,-0.284582,-0.240768
16.408699,-0.031224,-0.776218,-0.746229
16.438820,0.247686,-1.090247,-1.102672
16.468941,0.465311,-0.412910,-1.051089
16.509102,1.396340,0.096330,-0.338530
16.539223,1.355035,0.004612,-1.270232
16.569344,1.132330,-0.258710,-1.426995
16.599465,1.024163,-0.706953,-1.102335
16.629616,0.691323,-0.643446,-0.713949
16.659737,0.672938,-0.928434,-0.787353
16.699898,0.889751,-0.846935,-1.092332
16.730019,0.540059,-0.880199,-1.131729
16.760140,0.106512,-0.809729,-0.956092
16.800302,0.338266,-0.652872,-0.795803
16.830423,0.909947,-0.576118,-0.897303
16.860544,0.606187,-0.656738,-0.641200
16.900705,0.353744,-0.734650,-0.427516
16.930826,0.389489,-0.636874,-0.629705
16.960947,0.545016,-0.495923,-0.818202
17.001108,0.408924,-0.668199,-0.705949
17.031229,0.257406,-0.478988,-0.645553
17.061350,0.269253,-0.492866,-0.583145
17.101511,-0.036937,-0.545743,-0.458968
17.131632,-0.172945,-0.450035,-0.378411
17.161753,-0.032001,-0.367953,-0.318606
17.191874,0.004756,-0.329887,-0.169951
17.232036,-0.252231,-0.547592,-0.000317
17.262157,-0.258455,-0.524965,0.057453
17.292277,-0.072371,-0.329087,-0.016115
17.332438,0.262088,0.018255,-0.130633
17.362559,0.111998,0.002726,-0.145417
17.392680,0.085299,-0.149023,-0.131978
17.432841,0.028768,-0.297599,-0.349525
17.462962,-0.011358,-0.124306,-0.431489
17.493083,0.211245,-0.078039,-0.354386
17.533244,0.665893,0.132623,-0.373602
17.563365,0.665065,0.261806,-0.536024
17.593486,0.494533,0.144941,-0.595748
17.633648,0.121442,0.050604,-0.289311
17.663769,0.220274,0.626723,-0.315580
17.693890,0.210118,1.148875,-0.262720
17.734051,-0.041276,1.705564,-0.053771
17.764172,-0.007846,2.082943,0.332666
17.794294,0.309444,1.816450,0.832521
17.834454,0.236687,0.848084,0.948309
17.864575,-0.478088,0.618287,0.962349
17.894696,-0.786901,1.037301,1.053488
17.934858,0.292582,1.453313,1.387631
17.964978,-0.072751,1.013182,1.182347
17.995099,-0.692500,0.612927,1.024844
18.025220,-0.727038,0.380847,1.322039
18.065382,-0.725253,0.605273,1.601127
18.095503,-0.762979,0.400416,1.699717
18.125624,-0.724175,0.297370,1.554351
18.165785,-0.466054,0.197103,1.307064
18.195906,-0.460134,0.125448,1.183974
18.226027,-0.460479,0.098650,1.093461
18.266188,-0.322828,-0.019568,0.898393
18.296310,-0.043136,-0.059538,0.739630
18.326431,0.114327,-0.019421,0.518282
18.366591,-0.160953,-0.314595,0.266628
18.396712,0.109622,-0.459509,0.029293
18.426833,0.191827,-0.470141,-0.224964
18.466996,0.444441,-0.417911,-0.308082
18.497116,0.960083,-0.397311,-0.640690
18.527237,0.375182,-0.137839,-0.968224
18.567398,1.090143,-0.799460,-1.380168
18.597519,0.582109,-0.494611,-1.154135
18.627640,0.179726,-0.921905,-0.968440
18.667801,0.315696,-0.853062,-1.178187
18.697922,0.062564,-0.772994,-1.183966
18.728043,-0.117274,-0.750003,-1.237870
18.768204,-0.045719,-0.742441,-1.063083
18.798325,0.164024,-0.833672,-1.009984
18.828447,0.193654,-0.664902,-1.019444
18.858568,0.106560,-0.697585,-0.956376
18.898728,0.216681,-0.819666,-0.797627
18.928849,0.293350,-0.697387,-0.789966
18.958970,0.048288,-0.656924,-0.726253
18.999133,0.082917,-0.625545,-0.432170
19.029253,0.026747,-0.604838,-0.233147
19.059374,-0.199715,-0.636796,-0.100364
19.099535,-0.622764,-0.341730,0.092809
19.129656,-0.138974,0.051559,0.354233
19.159777,0.648195,0.137958,0.377183
19.199938,0.638110,-0.153169,0.168256
19.230059,-0.011492,-0.177731,-0.026595
19.260180,-0.123631,-0.277965,-0.138428
19.300341,0.155125,-0.078451,-0.188176
19.330462,0.242906,0.060822,-0.183588
19.360583,0.308663,0.006005,-0.140370
19.400745,0.598473,0.199508,-0.251023
19.430866,0.593694,0.135485,-0.446592
19.460987,0.492862,0.086726,-0.417942
19.501148,0.576590,0.237685,-0.405591
19.531269,0.241680,0.099788,-0.350128
19.561390,-0.033761,0.403085,-0.274065
19.601551,-0.282786,1.184096,-0.166023
19.631672,-0.169887,1.607978,0.018760
19.661793,0.049250,1.843120,0.432060
19.691914,0.655614,1.685105,0.871914
19.732075,0.374449,1.100810,1.032717
19.762196,-0.285581,0.689373,1.029902
19.792317,-0.225513,0.844875,1.318614
19.832478,0.099746,1.055951,1.165202
19.862599,-0.325184,0.705297,0.869765
19.892720,-0.492634,0.753299,0.979504
19.932882,-0.618824,0.530856,1.368780
19.963003,-0.898529,0.371127,1.265543
19.993124,-0.989002,0.327939,1.454695
20.035765,-0.324814,0.242649,1.209346
20.075926,-0.103130,0.136476,1.069282
20.106047,-0.264772,0.158988,1.100237
20.136168,-0.244762,0.098082,0.918294
20.166289,-0.138526,0.021955,0.789127
20.206450,-0.225654,-0.026411,0.544089
20.236571,-0.155750,-0.089066,0.406929
20.266696,-0.009600,-0.206030,0.191062
20.306857,0.083049,-0.212016,-0.037922
20.336978,0.246078,-0.409417,-0.297266
20.367099,1.175824,-0.697045,-0.914557
20.407261,0.257395,0.037916,-0.405773
20.437382,0.886214,-0.518283,-0.887528
20.467502,0.876379,-0.695414,-1.358913
20.507664,0.544872,-0.713486,-1.011569
20.537785,0.199546,-0.745191,-0.782521
20.567906,0.170688,-0.752605,-0.983739
20.608067,0.085131,-0.850950,-1.128561
20.628173,-0.016066,-0.780036,-1.069134
20.668334,0.137463,-0.760142,-0.882799
20.698455,0.388186,-0.820953,-0.855660
20.728576,0.235047,-0.852864,-0.869393
20.768737,0.254621,-0.668739,-0.843018
20.798858,0.354695,-0.568563,-0.826438
20.828979,0.415107,-0.618765,-0.919199
20.869141,0.045615,-0.884256,-1.135801
20.899262,-0.303356,-0.943552,-0.907777
20.929382,-0.196942,-0.771405,-0.494435
20.959503,-0.159911,-0.635328,-0.255016
20.999665,0.163647,-0.252001,-0.309153
21.029786,0.473535,0.105897,-0.264346
21.059907,0.106544,-0.047344,0.111607
21.100068,-0.101752,-0.172447,0.161122
21.130189,0.158690,-0.001981,0.078823
21.160310,0.432167,0.056265,-0.066190
21.200471,-0.130402,-0.078930,-0.115385
21.230592,0.001508,-0.057524,-0.085881
21.260709,0.189751,-0.007931,-0.231929
21.300870,0.107753,-0.046391,-0.292364
21.330991,0.285097,-0.020468,-0.313393
21.361112,0.195350,0.079589,-0.317093
21.401274,0.244342,0.269699,-0.339069
21.431395,0.177667,0.162410,-0.405234
21.461516,0.205231,0.042426,-0.313080
21.501677,0.024014,0.231093,0.040928
21.531798,-0.145064,0.619775,-0.101600
21.561919,-0.250160,1.185540,0.075768
21.602080,0.156166,1.806484,0.378863
21.632201,0.322119,1.947106,0.751511
21.662322,0.462054,1.269160,0.904912
21.702483,-0.222337,0.851693,1.359316
21.732604,-0.153762,0.985166,1.526576
21.762725,0.019179,1.136410,1.402185
21.792846,0.049710,1.229593,1.337062
21.833007,-0.543104,0.880215,1.138414
21.863128,-0.730115,0.843987,1.184667
21.893249,-0.668393,0.708457,1.470869
21.933411,-0.863554,0.680685,1.649278
21.963532,-0.724727,0.484940,1.531388
21.993653,-0.605387,0.422545,1.327617
22.033814,-0.434636,0.477020,1.054150
22.063935,-0.332692,0.211318,0.911254
22.094056,-0.309537,0.037092,0.715767
22.134217,-0.205235,0.067853,0.540566
22.164338,-0.177836,-0.105684,0.540701
22.194459,-0.203692,-0.316957,0.439246
22.234620,0.037846,-0.340908,0.100864
22.264742,0.173996,-0.319993,-0.137364
22.294863,-0.045886,-0.504206,-0.367406
22.335025,0.299679,-0.397592,-0.316851
22.365146,0.822800,-0.135645,-0.039870
22.395267,0.586864,-0.752843,-0.598957
22.435428,0.742977,-0.532276,-1.229038
22.465549,0.664281,-0.962403,-1.306857
22.495670,1.048825,-0.700870,-0.863334
22.535831,0.350792,-0.782765,-1.313961
22.565952,0.187220,-0.767595,-1.331869
22.596073,0.244441,-0.719272,-1.027544
22.626194,-0.088831,-0.692451,-0.979599
22.666355,0.091027,-0.580732,-1.107674
22.696476,0.384814,-0.524964,-1.113673
22.726597,0.413202,-0.683527,-0.840084
22.766759,0.433803,-0.481442,-0.652748
22.796880,0.509518,-0.345246,-0.753187
22.827001,0.247431,-0.384976,-0.846309
22.867162,0.199768,-0.553995,-0.405581
22.897283,0.118115,-0.554322,-0.368959
22.927404,0.181772,-0.509238,-0.599131
22.967565,0.011799,-0.460481,-0.319830
22.997686,0.128501,-0.186894,-0.248907
23.027807,0.168622,-0.239396,-0.179715
23.067968,0.083804,-0.275020,-0.040947
23.098089,0.006007,-0.147764,0.017159
23.128210,-0.382324,-0.103473,0.117588
23.168372,0.174884,-0.025722,-0.129699
23.198493,-0.139581,-0.199349,-0.196736
23.228614,0.309504,0.049485,-0.109950
23.268775,-0.039903,0.060948,-0.140708
23.298896,-0.039794,0.012827,-0.348964
23.329017,0.472006,0.032064,-0.334561
23.369178,0.314163,0.271633,-0.138550
23.399299,0.139551,-0.129261,-0.181823
23.429420,0.586343,-0.056605,-0.366239
23.459541,0.725215,0.275328,-0.360843
23.499702,0.347157,0.230204,-0.172429
23.529823,0.183908,0.656749,-0.153153
23.559944,0.267078,1.365208,0.068524
23.600105,0.613275,1.317416,0.385825
23.630226,0.868633,1.174959,0.364825
23.660347,0.576919,0.831187,0.380778
23.700509,-0.592634,0.495572,1.050609
23.730630,-0.347074,0.821858,1.284135
23.760751,-0.300022,0.956381,1.131242
23.800912,-0.748436,0.666947,1.036009
23.831033,-1.150295,0.649788,1.275547
23.861154,-0.846816,0.484340,1.372576
23.901315,-0.596905,0.507746,1.289856
23.931436,-0.677310,0.571605,1.256349
23.961557,-0.490893,0.669970,1.306773
24.001718,-0.207185,0.451403,1.278193
24.031839,-0.388021,0.330451,1.166410
24.061960,-0.340300,0.268392,1.001253
24.102122,0.144757,0.190642,0.864425
24.132243,-0.000734,0.105967,0.688159
24.162364,-0.026546,-0.004774,0.621590
24.202525,0.060920,-0.056542,0.455487
24.232646,0.020717,-0.288954,0.173544
24.262770,0.009138,-0.427390,-0.188919
24.292891,0.012957,-0.385735,-0.416971
24.333052,0.196060,-0.143269,-0.071209
24.363173,0.834468,-0.656372,-0.270555
24.393294,0.237974,-0.001869,-0.709109
24.433455,0.206407,-0.775000,-1.268915
24.463576,0.275353,-0.958789,-1.068879
24.493697,0.948033,-0.832732,-0.572021
24.533859,0.322990,-0.850038,-1.121254
24.563980,0.495833,-0.784396,-1.179394
24.594101,0.185537,-0.812685,-0.997155
24.634262,0.004187,-0.619223,-1.089049
24.664383,0.348792,-0.604342,-1.145114
24.694504,0.700762,-0.670836,-1.120907
24.734665,0.289812,-0.655487,-1.083181
24.764786,0.185603,-0.810027,-0.802938
24.794907,0.125484,-0.918176,-0.531959
24.835068,0.030306,-0.775899,-0.605139
24.865189,0.027643,-0.576628,-0.779252
24.895310,0.182092,-0.648303,-0.619715
24.935472,0.142581,-0.588844,-0.395804
24.965593,-0.069253,-0.320758,-0.291352
24.995713,-0.157914,-0.326178,-0.272909
25.035875,-0.535841,-0.344304,-0.021390
25.065996,-0.320509,-0.145673,0.056085
25.096117,-0.084500,-0.024128,0.049939
25.126238,-0.390557,-0.129108,0.068988
25.166399,-0.443801,-0.301225,-0.021013
25.196520,-0.270812,-0.143916,0.015668
25.226641,-0.230253,-0.072669,-0.060569
25.266799,-0.131247,-0.120557,-0.275636
25.296920,0.182135,0.008955,-0.337094
25.327041,0.313965,-0.003728,-0.345831
25.367202,0.097089,-0.106532,-0.331719
25.397323,0.358410,0.122455,-0.349190
25.427444,0.719717,0.316791,-0.410760
25.467606,0.282532,-0.026562,-0.281468
25.497727,-0.160089,0.113971,0.016628
25.527848,-0.298528,0.448300,-0.022864
25.568009,-0.203476,1.077483,0.064445
25.598130,0.017540,1.469641,0.536728
25.628251,0.277852,1.403473,1.026460
25.668412,0.208116,0.902027,1.325353
25.698533,-0.159342,0.568223,1.176836
25.728654,-0.622923,0.506784,1.181627
25.768815,0.213868,1.312187,1.361465
25.798936,0.467415,1.128767,1.076072
25.829057,-0.216887,1.026896,0.906783
25.869219,-0.529906,0.826757,1.141445
25.899339,-0.465519,0.774893,1.475193
25.929460,-0.601578,0.827534,1.600666
25.959581,-0.509267,0.745896,1.469174
25.999743,-0.545912,0.669433,1.460548
26.029864,-0.516027,0.427472,1.324721
26.059985,-0.323525,0.335061,1.047102
26.100146,-0.235768,0.277794,0.788277
26.130267,-0.289362,0.013905,0.596492
26.160388,-0.382088,-0.077026,0.377733
26.200549,-0.071434,-0.172158,0.240541
26.230670,0.002922,-0.428260,0.047957
26.260791,0.132916,-0.556556,-0.242404
26.300952,0.115797,-0.566392,-0.435458
26.331073,0.171229,-0.285624,0.072820
26.361194,0.464905,-0.444558,0.069827
26.401356,0.149060,-0.297908,-0.735634
26.431477,0.323473,-0.389940,-1.071356
26.461598,0.459138,-0.739090,-0.939200
26.501759,1.080996,-0.682091,-0.862675
26.531880,0.438311,-0.932002,-1.206858
26.562001,0.264546,-0.716147,-1.253085
26.602162,-0.015919,-0.833671,-1.161632
26.632283,0.004403,-0.794200,-0.992885
26.662404,-0.006321,-0.873665,-1.211562
26.702565,0.029873,-0.832708,-1.177790
26.732686,0.179186,-0.865201,-0.831187
26.762807,0.413027,-0.658224,-0.673729
26.792928,0.132794,-0.662377,-0.844729
26.833089,0.303806,-0.778674,-1.031756
26.863210,0.287777,-0.707704,-0.871562
26.893331,0.122387,-0.746844,-0.619025
26.933493,-0.359918,-0.731249,-0.404586
26.963614,-0.442661,-0.458628,-0.219477
26.993734,-0.027844,-0.147694,-0.188737
27.033896,0.336487,0.004205,-0.262487
27.064017,0.225044,-0.033201,-0.056325
27.094138,-0.128368,-0.074289,0.205708
27.134299,0.061000,-0.059159,0.023593
27.164420,0.008676,-0.174268,0.046349
27.194541,-0.127574,-0.323663,0.197198
27.234702,0.382499,0.147368,-0.058224
27.264823,0.451239,0.262866,-0.120599
27.294944,0.134863,0.056280,-0.106800
27.335105,0.086877,0.014834,-0.113690
27.365226,0.298991,0.101783,-0.246648
27.395347,0.132523,-0.096877,-0.122534
27.435509,0.040644,-0.007565,-0.043848
27.465630,0.357437,0.117772,-0.116838
27.495750,0.517877,0.041658,-0.278897
27.535912,0.296027,0.606694,-0.387845
27.566033,0.197084,0.770630,-0.058090
27.596154,0.108291,0.815716,0.119304
27.636315,0.075876,1.070890,0.326139
27.666436,0.221152,1.158577,0.670729
27.696557,0.091731,1.065765,0.805319
27.726678,-0.079136,0.774434,1.096269
27.773089,-0.853467,0.859255,1.445947
27.803210,-0.243588,1.654672,1.496495
27.833331,0.560085,1.551828,1.257701
27.873492,-0.319660,0.794963,1.281142
27.903613,-0.774575,0.692760,1.374209
27.933734,-0.793312,0.623086,1.392718
27.973895,-0.687687,0.546859,1.689273
28.004016,-0.491997,0.526908,1.787408
28.034137,-0.415737,0.420571,1.534061
28.074299,-0.323405,0.421869,1.124210
28.104420,-0.258340,0.549471,0.757770
28.134541,-0.013435,0.557980,0.497812
28.174702,0.045449,0.216176,0.295480
28.204823,-0.098820,0.092771,0.213604
28.234944,-0.009240,-0.053014,0.157664
28.275105,0.120301,-0.291440,-0.064732
28.305226,0.083674,-0.367837,-0.276115
28.335347,0.223760,-0.554161,-0.570951
28.365498,0.619538,-0.680891,-0.771018
28.395619,0.574863,0.195423,0.009349
28.425740,0.635742,-0.639774,-0.532080
28.465901,0.556841,-0.523594,-1.252281
28.496022,-0.017513,-1.040737,-1.325013
28.526143,0.692351,-0.659977,-0.896014
28.566305,0.481092,-0.801356,-0.990689
28.596426,0.164966,-0.838971,-1.047978
28.626546,0.214485,-0.793931,-1.012521
28.666708,0.006552,-0.643547,-0.963037
28.696829,0.059694,-0.510386,-0.916261
28.726950,0.322027,-0.592981,-0.909178
28.767111,0.455201,-0.658376,-0.882259
28.797232,0.310657,-0.727217,-0.840990
28.827353,0.088377,-0.809584,-0.763133
28.867514,-0.236915,-0.875153,-0.624798
28.897635,-0.165286,-0.751271,-0.372111
28.927756,-0.262068,-0.671585,-0.262363
28.967917,0.006787,-0.488535,-0.340363
28.998038,0.020714,-0.457958,-0.403012
29.028159,0.115045,-0.113670,-0.347161
29.058280,0.300500,0.051937,-0.220513
29.098442,0.146729,-0.038432,-0.063650
29.128563,0.075238,-0.154862,0.031079
29.158684,-0.031136,-0.199282,0.131217
29.198845,-0.116963,-0.188002,-0.081131
29.228966,0.178832,-0.067132,-0.125868
29.259087,0.185696,0.002343,-0.190701
29.299248,0.158973,0.144524,-0.297514
29.329369,0.383019,0.101080,-0.358116
29.359490,0.468962,0.230557,-0.402473
29.399651,0.268678,0.107913,-0.309202
29.429772,0.371689,0.118195,-0.199836
29.459893,0.574495,0.236335,-0.300539
29.500054,0.138797,0.094834,-0.253008
29.530175,-0.176114,0.439982,-0.132755
29.560296,-0.226352,0.838879,-0.039656
29.600458,-0.221870,0.918728,0.211666
29.630579,0.020056,0.900313,0.520909
29.660700,0.094422,0.916755,0.811630
29.700861,-0.182307,0.695586,0.992484
29.730982,-0.335002,0.550089,1.054294
29.761103,-0.265863,1.025069,1.327462
29.801264,-0.055808,1.259847,1.127489
29.831385,-0.530969,1.078903,1.043381
29.861506,-0.514180,0.844584,1.034218
29.891627,-0.001064,0.657667,0.948467
29.931788,-0.032543,0.768917,1.145243
29.961909,-0.452135,0.708183,1.251594
29.992030,-0.605195,0.624721,1.291523
30.032192,-0.398195,0.518850,1.226998
30.062312,-0.466153,0.335355,1.074344
30.092433,-0.423697,0.216662,1.001864
30.132595,-0.381156,0.147801,0.869604
30.162716,-0.469275,0.032399,0.694816
30.192837,-0.247425,0.003796,0.489663
30.232998,-0.064828,-0.122499,0.207693
30.263118,-0.001189,-0.435473,-0.216971
30.293239,0.130930,-0.580992,-0.575297
30.333400,0.757649,-0.232921,-0.245380
30.363521,0.638617,-0.528892,-0.683680
30.393642,0.669435,-0.197670,-1.089630
30.433803,0.552087,-0.903255,-1.036356
30.463924,0.911460,-0.725152,-0.835789
30.494045,0.397538,-0.799140,-0.694551
30.534207,0.266066,-0.761371,-0.820668
30.564328,0.031459,-0.806181,-0.795884
30.594449,0.089227,-0.650128,-0.812526
30.634610,0.425594,-0.263217,-0.887322
30.664731,0.494625,-0.280953,-0.958633
30.694852,0.593304,-0.597908,-0.893524
30.724973,0.653547,-0.612543,-0.758356
30.765134,0.522213,-0.537451,-0.631374
30.795255,0.678436,-0.484221,-0.757793
30.825376,1.120978,-0.189903,-0.623303
30.865537,1.150196,-0.231296,-0.352613
30.895658,1.150495,-0.318072,-0.429711
30.925779,0.354647,-0.269056,-0.440932
30.965941,-0.047365,-0.502181,-0.160852
30.996062,-0.209010,-0.515717,-0.021454
31.026183,-0.615346,-0.431226,-0.007838
31.066344,-0.564539,-0.260563,0.133803
31.096465,-0.368275,-0.212315,0.169566
31.126586,-0.167738,0.045257,0.188330
31.166747,-0.041266,-0.246397,0.473397
31.196868,0.006682,-0.069116,0.046003
31.226989,0.034188,-0.158020,-0.103253
31.267151,0.658284,0.403093,0.095749
31.297272,0.947536,0.533048,-0.174347
31.327393,0.488496,0.341416,-0.387887
31.367555,-0.261712,0.124760,-0.227291
31.397676,-0.395976,-0.055296,0.008427
31.427797,-0.283081,0.059935,-0.044591
31.467958,-0.641181,-0.178371,-0.105903
31.498079,-0.804497,-0.004827,-0.130361
31.528200,-0.739812,0.493608,0.164626
31.558321,-0.609252,0.859529,0.436519
31.598482,-0.421871,0.963292,0.910382
31.628603,-0.413603,0.565697,1.161043
31.658724,-1.317071,0.285358,1.522128
31.698886,-1.263005,0.383636,1.386393
31.729007,-0.231494,1.269949,1.096671
31.772903,-0.073839,1.174000,0.902208
31.803024,-0.497428,0.466711,0.766631
31.833145,-0.704661,0.591538,0.761990
31.873306,-0.728260,0.694992,0.872046
31.903427,-0.942463,0.425133,0.801814
31.933548,-0.920790,0.261718,0.894838
31.973709,-0.612110,0.386149,0.995218
32.003830,-0.658113,0.410933,0.969839
32.033951,-0.546388,0.291318,0.803184
32.074113,-0.053255,0.263684,0.534478
32.104233,-0.302365,0.316605,0.476497
32.134354,-0.127227,0.014491,0.396379
32.174516,-0.119807,-0.167058,0.090933
32.204637,-0.039983,-0.561594,-0.230463
32.234758,0.200424,-0.773372,-0.395814
32.274918,0.233923,-0.602187,-0.129072
32.305039,0.379386,-0.100988,-0.359577
32.335160,1.258405,0.187738,-0.770857
32.365286,1.244999,-0.216339,-1.055881
32.405447,1.078350,-0.093413,-0.697238
32.435568,1.041497,-0.402744,-0.802898
32.465689,1.144532,-0.463965,-0.849630
32.505851,0.937560,-0.513850,-0.888989
32.535972,0.489995,-0.504853,-1.114149
32.566093,0.183972,-0.458623,-0.980319
32.606254,0.401108,-0.501316,-0.753421
32.636375,0.537057,-0.505887,-0.878519
32.666496,0.564809,-0.640196,-0.835268
32.706657,0.182755,-0.554538,-0.589805
32.736778,0.470991,-0.531745,-0.641259
32.766899,0.607309,-0.558890,-0.704108
32.807061,0.159752,-0.420646,-0.623861
32.837182,-0.287904,-0.475046,-0.200278
32.867303,-0.338931,-0.592657,-0.177930
32.907464,-0.407941,-0.611069,-0.387607
32.937585,-0.350769,-0.578250,-0.337274
32.967706,-0.363290,-0.453927,-0.364411
32.997827,-0.193023,-0.389410,-0.372432
33.037988,-0.237771,-0.293070,-0.198723
33.068109,-0.250704,-0.070968,-0.172597
33.098230,-0.318360,-0.161969,-0.284240
33.138392,-0.334302,-0.162629,-0.248032
33.168512,-0.101823,-0.086543,-0.122046
33.198633,0.010620,0.191914,-0.227325
33.238795,0.557836,0.219351,-0.375526
33.268917,0.579586,0.217140,-0.274607
33.299038,0.210538,0.186322,-0.444568
33.339199,0.092345,0.133475,-0.227294
33.369320,-0.155858,0.320438,-0.067008
33.399441,-0.509889,0.469773,0.050564
33.439602,-0.571502,0.778468,0.125254
33.469723,-0.106297,1.099571,0.449788
33.499844,0.188509,1.072715,0.852573
33.540006,-0.538704,0.379152,1.076771
33.570127,-1.100761,0.179392,1.088337
33.600248,-0.643092,1.100161,1.445701
33.640409,0.358596,1.219852,1.333165
33.670530,-0.250875,0.976912,1.189397
33.700651,-0.585035,1.005199,1.146625
33.740812,-0.420353,0.879774,1.208290
33.770933,-0.345324,0.879266,1.362450
33.801054,-0.497779,0.766151,1.355971
33.831175,-0.337149,0.610803,1.266473
33.871337,0.055708,0.581742,1.165222
33.901458,-0.070393,0.441743,1.138826
33.931579,-0.198096,0.248577,0.945171
33.971740,0.049528,0.043571,0.711005
34.001861,-0.263731,-0.038861,0.561101
34.031982,-0.221094,-0.247043,0.326121
34.072143,0.151139,-0.518149,-0.418778
34.102264,0.476221,-0.358956,-0.683108
34.132385,0.604239,-0.071791,-0.440484
34.172547,0.366656,-0.641589,-0.972888
34.202668,0.599876,-0.371050,-1.386042
34.232789,0.261852,-0.862624,-1.541023
34.272950,0.640860,-0.367956,-1.030095
34.303071,0.423384,-0.808802,-1.306989
34.333192,0.363709,-0.910076,-1.810430
34.373353,0.207631,-0.948986,-1.651234
34.403474,0.029015,-0.860634,-1.085232
34.433595,-0.016389,-0.839874,-0.883109
34.473757,0.284015,-0.646399,-1.023561
34.503878,0.527932,-0.669994,-1.198448
34.533999,0.559022,-0.609808,-1.001315
34.574160,0.363128,-0.620948,-0.386446
34.604281,0.338296,-0.442524,-0.479079
34.634402,0.393690,-0.442453,-0.669017
34.664523,0.097975,-0.721226,-0.591044
34.704684,-0.317539,-0.941230,-0.201599
34.734805,-0.387966,-0.540739,0.106261
34.764926,-0.162961,-0.067979,0.133968
34.805088,-0.177838,0.083977,-0.028679
34.835209,-0.209434,0.043320,-0.030258
34.865330,0.055114,-0.110669,-0.016860
34.905491,-0.124821,-0.315346,0.179596
34.935612,-0.239586,-0.278101,0.069736
34.965733,0.073461,-0.149362,0.073841
35.005894,0.180261,-0.119643,-0.099579
35.036015,-0.024825,-0.115179,-0.171596
35.066136,-0.012321,0.033388,-0.157678
35.106298,0.074171,0.110695,-0.250242
35.136419,0.137611,0.139253,-0.375114
35.166540,0.110906,0.079448,-0.303306
35.206701,0.085801,-0.086914,-0.154817
35.236822,0.012266,-0.092429,-0.192244
35.266943,0.037596,0.084911,-0.231870
35.307104,0.473345,0.118400,-0.337791
35.337225,0.406784,0.193780,-0.268355
35.367346,0.039691,0.192875,-0.165468
35.407508,-0.440960,0.234072,-0.164848
35.437629,-0.289885,0.671735,-0.032871
35.467750,-0.247199,1.172795,0.133015
35.497871,-0.258636,1.260526,0.288839
35.538032,-0.038939,1.184201,0.676147
35.568153,0.352628,0.919093,0.933591
35.598274,0.137363,0.523467,0.940467
35.638435,-0.585326,0.925348,1.047756
35.668556,-0.339380,1.421574,1.117945
35.698677,0.016112,1.120232,0.995093
35.738839,-0.511743,0.967615,1.038228
35.768954,-0.713375,1.051001,1.121350
35.809116,-0.493427,0.826123,1.208194
35.839237,-0.493720,0.770962,1.299619
35.869358,-0.607331,0.723836,1.310102
35.899479,-0.839845,0.498080,1.189092
35.939640,-0.688689,0.467077,1.210631
35.969761,-0.395654,0.285523,1.132071
35.999882,-0.384765,0.291603,1.033416
36.040043,-0.389849,0.253492,0.814971
36.070164,-0.262191,0.078093,0.636270
36.100285,-0.240363,0.088671,0.539002
36.140447,-0.188542,0.038441,0.414470
36.170568,-0.224463,-0.086411,0.250005
36.200689,0.056319,-0.183554,0.005429
36.240850,0.324954,-0.360585,-0.116740
36.270975,0.116352,-0.561543,-0.376836
36.301096,0.017029,-0.657070,-0.545294
36.341257,0.524356,-0.133373,-0.121730
36.361358,1.092791,-0.281160,-0.069068
36.401520,-0.132975,-0.603220,-1.067960
36.431641,0.973616,-0.456076,-1.071808
36.461762,0.375918,-0.782006,-0.761604
36.501923,0.803865,-0.831682,-1.034378
36.532044,0.733981,-0.894121,-1.483447
36.562165,0.965769,-0.829907,-1.547740
36.602326,0.139209,-1.095984,-1.053741
36.632447,-0.259055,-1.168887,-0.968772
36.662568,-0.281874,-1.056891,-0.854792
36.702730,0.042400,-0.715085,-0.599449
36.732851,0.324641,-0.740179,-0.672905
36.762972,0.282240,-0.603764,-0.922142
36.803133,0.438903,-0.633469,-0.780065
36.833254,0.701253,-0.663065,-0.476602
36.863375,0.408839,-0.643549,-0.373994
36.903536,-0.659069,-0.932092,-0.451305
36.933657,-0.596760,-1.008867,-0.341476
36.963778,0.025377,-0.741221,-0.025582
36.993899,0.154636,-0.221202,0.013282
37.034061,-0.172806,0.038547,-0.051619
37.064182,-0.335867,0.000410,0.092666
37.094303,-0.039876,0.011900,0.267999
37.134464,0.153028,0.042655,0.101507
37.164585,0.057213,-0.130296,0.088405
37.194706,0.188097,0.039098,0.087941
37.234867,0.571455,0.169161,-0.042590
37.264988,0.229075,0.050638,-0.204504
37.295105,0.131494,-0.071204,-0.276496
37.335267,0.333982,0.085950,-0.237203
37.365388,0.324539,0.102657,-0.192783
37.395509,0.132893,-0.097522,-0.191174
37.435670,0.370562,0.081707,-0.287537
37.465791,0.638047,0.195468,-0.369675
37.495912,0.237337,0.263727,-0.248719
37.536073,-0.222897,0.418715,-0.136550
37.566194,-0.341857,0.706976,-0.039504
37.596315,-0.543500,1.099914,0.215298
37.636477,-0.079785,1.402184,0.665700
37.666598,0.387773,1.271855,0.798440
37.696719,0.153349,1.226383,1.077558
37.736880,-0.861142,0.955298,0.933243
37.767001,-0.486731,0.805135,0.701578
37.797122,0.335759,1.311409,0.915443
37.827243,0.307728,1.401568,1.031411
37.867404,-0.249468,0.868990,0.888321
37.897525,-0.564750,0.625798,1.073166
37.927646,-0.488990,0.435501,1.244935
37.967808,-0.630547,0.457404,1.290303
37.997929,-0.417757,0.613749,1.267954
38.028050,-0.389463,0.634044,1.224965
38.068211,-0.285077,0.423418,0.917501
38.098332,-0.166092,0.446853,0.773352
38.128453,-0.082756,0.451498,0.842924
38.168614,-0.094178,0.210786,0.685408
38.198735,0.128389,0.077080,0.440594
38.228856,0.094490,0.143517,0.311539
38.269017,-0.231027,-0.096866,0.084986
38.299138,-0.404467,-0.295592,-0.143983
38.329259,-0.281064,-0.516517,-0.547373
38.369420,-0.320125,-0.903373,-1.021797
38.399541,-0.232308,-0.840139,-0.863082
38.429662,0.084551,-0.417184,-0.486100
38.469823,0.769701,-0.737504,-0.597617
38.499944,0.400384,-0.287167,-0.969191
38.530065,0.353465,-1.143351,-1.072536
38.570227,0.699836,-0.528917,-0.826258
38.600348,1.176079,-0.279889,-0.796448
38.630469,0.986067,-0.535861,-1.111686
38.670630,0.227714,-0.701722,-0.919038
38.700751,-0.155493,-0.766035,-0.832477
38.730872,-0.253963,-0.709589,-0.735788
38.760993,-0.318088,-0.754459,-0.625203
38.801154,-0.324624,-0.834535,-0.641220
38.831275,-0.709122,-0.801780,-0.331368
38.861396,-0.609684,-0.663464,-0.248669
38.901558,0.053305,-0.790018,-0.471272
38.931679,-0.110511,-0.646876,-0.305978
38.961800,-0.482306,-0.325805,-0.093241
39.001961,0.037734,-0.388228,-0.097995
39.032082,0.342000,-0.465472,-0.038053
39.062203,0.381529,-0.199158,-0.139255
39.102364,0.136668,-0.292436,-0.004386
39.132485,-0.103103,-0.174391,0.104646
39.162606,-0.142878,-0.021622,0.183379
39.202768,0.339469,-0.124997,-0.028249
39.232889,0.253449,-0.015216,0.005992
39.263010,-0.173219,-0.112338,0.136451
39.303173,0.003359,-0.063865,-0.022816
39.333294,0.360867,0.244404,-0.166510
39.363415,0.281093,0.280206,-0.100973
39.403576,0.005423,-0.049981,-0.078228
39.433697,-0.273239,-0.426872,-0.228075
39.463818,0.025824,0.077716,-0.301657
39.503980,-0.241273,0.112010,0.211154
39.534101,-0.680708,-0.215413,0.290143
39.564222,-0.763920,-0.633101,0.102015
39.594343,-0.676010,-0.440279,0.002567
39.634504,-0.802051,0.929285,0.185596
39.664625,-0.970128,0.823895,0.401157
39.694746,-1.061387,0.505406,0.266760
39.734907,-1.169801,1.605531,0.447829
39.775048,-1.834544,1.437257,0.879754
39.805169,-1.562893,1.224377,0.675387
39.835290,-0.163520,1.394295,0.093232
39.875452,-0.066980,1.429712,0.826164
39.905573,0.495893,1.359283,0.567682
39.935694,0.831096,1.065470,0.222981
39.975855,0.641838,1.033662,0.657129
40.005976,0.181944,0.727768,0.662970
40.036097,0.355225,0.589870,0.562391
40.066218,0.328482,0.731891,0.817915
40.106379,0.834038,0.518154,0.835673
40.136500,0.136941,0.523411,0.605574
40.166621,0.054693,0.379355,0.523139
40.206783,0.047564,0.265223,0.441607
40.236904,-0.097158,0.158349,0.268407
40.267025,-0.053584,-0.016001,0.098251
40.307185,-0.272617,-0.173385,0.160863
40.337306,-0.037459,-0.282299,0.012907
40.367437,0.155051,-0.306770,-0.137187
40.397558,0.008732,-0.178392,-0.034908
40.437720,-0.031204,-0.261498,-0.013015
40.467841,0.115004,-0.236820,-0.241827
40.497962,0.941741,0.200445,-0.538288
40.538123,0.466730,-0.571245,-0.875014
40.568244,0.338537,-0.625509,-0.979788
40.598365,0.067161,-0.955551,-0.437670
40.638526,0.597288,-1.044220,-0.540676
40.668647,1.200962,-0.984871,-0.967687
40.698768,1.348342,-0.691400,-1.170557
40.738930,1.229337,-0.275105,-1.066005
40.769051,1.316105,-0.262723,-1.137116
40.799172,1.460439,-0.504896,-1.126656
40.839333,0.387830,-0.632332,-0.696348
40.869454,-0.190070,-0.806247,-0.659118
40.899575,-0.104100,-0.899429,-0.847292
40.939736,0.016107,-1.000085,-0.696698
40.969857,0.197480,-0.907632,-0.532895
40.999978,-0.060499,-0.646668,-0.645280
41.030099,-0.097748,-0.678441,-0.632326
41.070261,-0.115135,-0.806446,-0.229336
41.100382,-0.138006,-0.700216,-0.139934
41.130503,-0.372281,-0.660598,-0.169529
41.170664,-0.559388,-0.408634,-0.023739
41.200785,-0.368861,-0.200427,0.011539
41.230906,-0.171975,-0.103805,0.075841
41.271067,0.191629,0.055260,-0.092701
41.301188,0.148371,0.171319,-0.134044
41.331309,0.076493,0.135970,-0.064551
41.371471,0.516690,0.156655,-0.123449
41.401592,0.514842,0.017722,-0.155264
41.431713,0.362651,-0.042776,-0.261861
41.471874,-0.011196,0.011153,-0.269808
41.501995,0.687480,0.188157,-0.376253
41.532116,1.189022,0.540842,-0.481593
41.572277,0.541722,0.458999,-0.409604
41.602398,-0.270841,0.223889,-0.397472
41.632519,-0.843175,0.176535,-0.142532
41.672681,-0.555446,0.258009,0.196373
41.702802,-0.122844,0.853898,0.453291
41.732923,0.026939,1.015922,0.669118
41.773084,-0.273822,0.622488,1.026634
41.803205,-0.370730,0.195946,1.127757
41.833326,-0.333274,0.550303,1.063264
41.863447,-0.151382,1.667867,1.180375
41.903608,0.074056,1.491282,1.154018
41.933729,-0.233932,1.076996,1.035232
41.963850,-0.183491,1.012003,1.114897
42.004012,-0.248468,0.987193,1.298408
42.034133,-0.267238,0.763228,1.441237
42.064254,-0.380044,0.727981,1.570545
42.104415,-0.614860,0.540025,1.294283
42.134536,-0.485530,0.463892,1.211624
42.164657,-0.513718,0.371050,1.077675
42.204818,-0.556953,0.061556,0.879002
42.234939,-0.232137,-0.023997,0.672796
42.265060,-0.129924,0.116600,0.474908
42.305221,0.151171,0.002323,0.212990
42.335342,0.195860,-0.134672,0.007871
42.365463,0.125235,-0.256934,-0.285630
42.405624,-0.061065,-0.202000,-0.368513
42.435745,0.088049,-0.442156,-0.542800
42.465866,0.525407,-0.454768,-0.700424
42.506027,0.264005,-0.373312,-0.566326
42.536149,1.145131,-0.911327,-1.400637
42.566270,0.969480,-0.863729,-1.571313
42.606431,0.518963,-0.787274,-0.883398
42.636552,0.026950,-0.786515,-1.081181
42.666673,0.123364,-0.811424,-1.339735
42.696794,0.074974,-0.703023,-1.504060
42.736955,-0.074712,-0.790019,-1.249237
42.767076,0.473801,-0.679707,-0.995995
42.797197,0.679284,-0.663823,-1.140890
42.837359,0.605682,-0.546338,-0.997580
42.867480,0.282549,-0.636669,-0.697453
42.897601,0.162388,-0.697407,-0.770837
42.937762,0.252396,-0.641319,-1.043374
42.967883,0.278676,-0.597089,-0.654534
42.998004,0.047736,-0.655881,-0.091623
43.038165,0.279510,-0.391789,-0.168880
43.068286,0.246512,-0.216243,-0.285810
43.098407,0.000859,-0.164221,-0.273254
43.138569,-0.367943,-0.478305,0.230348
43.168690,-0.266811,-0.370553,0.276895
43.198811,-0.352043,-0.211888,0.157387
43.238972,-0.461682,-0.328591,0.014342
43.269093,-0.000185,-0.037110,0.095827
43.299215,0.109048,0.078360,0.085011
43.339376,0.229825,0.090291,-0.126609
43.369497,-0.080486,0.028046,-0.072887
43.399618,0.302156,0.075219,-0.068577
43.439780,0.616855,0.187306,-0.361027
43.469901,0.381388,0.083141,-0.393652
43.500022,0.295349,0.020590,-0.217108
43.530143,0.162970,-0.034564,-0.064071
43.570304,0.319044,0.372252,-0.273078
43.600425,0.198794,0.942452,-0.176627
43.630546,-0.118167,0.852670,0.220731
43.670707,-0.197299,0.990102,0.545259
43.700828,-0.020530,1.534629,0.737637
43.730949,0.592347,1.526587,1.038857
43.772356,0.241522,0.622895,1.019175
43.802477,-0.334374,0.045598,1.123293
43.832598,-0.530553,0.306374,1.163815
43.872759,-0.097092,1.040660,1.295139
43.902880,-0.455458,0.788821,1.230968
43.933001,-0.499770,0.442223,1.117356
43.973162,-0.551995,0.722052,1.439642
44.003283,-0.521502,0.599974,1.482868
44.033404,-0.542394,0.431365,1.308693
44.073566,-0.451682,0.780650,1.289411
44.103687,-0.250801,0.477347,1.154547
44.133808,-0.213263,0.376214,1.006450
44.173969,-0.392862,0.192551,0.816031
44.204090,-0.306370,0.123536,0.678474
44.234211,-0.051586,0.190329,0.528857
44.274372,0.051282,-0.001808,0.334201
44.304493,0.058637,-0.062803,0.213542
44.334614,0.057073,-0.129057,0.028359
44.364755,0.109037,-0.157172,-0.137861
44.394876,-0.057025,-0.100091,-0.198020
44.435038,0.778239,-0.549437,-0.805062
44.465159,0.381063,0.135199,-0.394580
44.495280,0.096444,-0.445289,-0.812463
44.535441,1.209134,-0.970732,-1.699752
44.565562,0.867721,-0.800042,-1.506040
44.595683,0.486701,-1.026724,-1.212441
44.635845,-0.068412,-0.880151,-1.150728
44.665965,-0.015409,-0.881424,-1.207428
44.696087,0.021845,-0.751250,-1.364619
44.736248,-0.170606,-0.570925,-1.145418
44.766369,-0.320935,-0.664656,-0.730138
44.796490,-0.142491,-0.600289,-0.787765
44.836651,-0.058873,-0.681027,-1.020999
44.866772,0.084458,-0.638032,-0.892375
44.896893,0.232260,-0.677017,-0.724085
44.937055,-0.005821,-0.766243,-0.669555
44.967176,-0.149507,-0.641439,-0.381034
44.997297,-0.001313,-0.537240,-0.214521
45.027418,-0.023779,-0.418060,-0.316928
45.067579,-0.004920,-0.450994,-0.298810
45.097700,0.201100,-0.320238,-0.279847
45.127821,-0.031048,-0.320955,-0.091228
45.167982,-0.180571,-0.300856,0.075251
45.198103,-0.238923,-0.152201,0.099286
45.228224,0.055071,-0.040617,0.142308
45.268386,0.048964,-0.133131,0.134339
45.298507,0.009937,-0.191021,-0.084497
45.328628,0.161304,-0.029884,-0.147469
45.368789,0.512887,0.279921,-0.012445
45.398910,0.262917,0.129793,-0.020401
45.429031,0.108300,0.070324,-0.273495
45.469193,0.251001,0.119421,-0.374836
45.499314,0.268626,0.117156,-0.378931
45.529435,0.339146,0.077352,-0.434762
45.569596,0.475685,-0.045394,-0.474604
45.599717,0.142920,0.011953,-0.373527
45.629838,-0.032991,0.116586,-0.311533
45.669999,-0.010433,0.963586,-0.117805
45.700120,0.117246,1.405180,0.181791
45.730241,0.218311,1.452878,0.491285
45.770403,-0.161845,1.272794,0.826349
45.800524,-0.527828,1.042130,1.531139
45.830645,-1.162345,1.131647,2.021721
45.860766,-1.546798,1.090654,2.227958
45.900927,-1.037552,1.014438,1.746059
45.931048,-0.568861,1.594238,1.197691
45.961169,-0.664571,1.204293,0.839319
46.001331,-0.662554,0.507282,1.289892
46.031452,-0.550646,0.977474,1.383165
46.061573,-0.458352,0.976107,1.183048
46.101734,-0.591721,0.466259,1.038930
46.131855,-0.206240,0.461465,0.983586
46.161976,0.471007,0.439409,0.603219
46.202137,0.160739,0.197617,0.399320
46.232258,0.132146,0.165084,0.261384
46.262379,0.263831,0.129001,0.139521
46.302541,0.046691,-0.389638,0.119588
46.332662,-0.055149,-0.482478,-0.069253
46.362783,-0.342699,-0.180259,-0.149766
46.402944,0.506208,-1.188030,-0.872133
46.433065,0.332314,-0.577451,-1.304546
46.463186,0.026289,0.480486,-0.398602
46.503348,0.739789,-0.500599,-0.557801
46.533469,0.597278,-0.353330,-1.092864
46.563590,0.298479,-0.669937,-0.903746
46.603751,0.913745,-0.551412,-0.588412
46.633872,1.685720,-0.358636,-1.028888
46.663993,1.089461,-0.319971,-0.976452
46.694114,0.573801,-0.580431,-0.752628
46.734275,0.164809,-0.756327,-0.887653
46.764396,0.142033,-0.659780,-0.840560
46.794517,-0.057685,-0.609226,-0.773969
46.834679,-0.289163,-0.723854,-0.662526
46.864800,-0.155285,-0.646593,-0.605733
46.894921,0.135505,-0.817227,-0.524267
46.935082,-0.040409,-0.876542,-0.477059
46.965203,-0.148395,-0.798424,-0.340362
46.995324,-0.191093,-0.950088,-0.128437
47.035486,-0.512062,-0.669211,0.046450
47.065607,-0.381791,-0.492483,0.069889
47.095728,-0.123311,-0.612610,0.236425
47.135889,-0.340033,-0.296098,0.406086
47.166010,-0.273430,-0.309315,0.492996
47.196131,-0.226916,-0.312232,0.310986
47.236292,-0.703627,-0.170876,0.352171
47.266413,-0.605939,-0.091098,0.297494
47.296534,-0.161436,-0.216290,0.191561
47.336696,0.178181,-0.036890,-0.050315
47.366817,0.340724,0.231843,-0.025672
47.396938,1.104182,0.223593,-0.086499
47.437099,0.765395,-0.023842,0.083514
47.467220,0.283387,-0.055187,-0.038576
47.497341,0.180073,0.326704,-0.172560
47.527462,0.264278,0.296338,-0.587085
47.567624,-0.208875,-0.074877,-0.089872
47.597745,-0.202604,0.432718,-0.077469
47.627866,-0.036049,0.468329,-0.476774
47.668027,-0.390442,0.541657,0.079174
47.698148,-1.266690,0.718724,0.773446
47.728269,-0.603605,0.842298,0.713042
47.768430,-0.734375,0.670712,0.608906
47.798551,-1.282609,0.797033,0.788005
47.828672,-1.462985,1.059522,1.219877
47.868834,-1.332862,1.182989,1.144876
47.898955,-0.567922,1.054257,1.081446
47.929076,0.120673,1.269228,0.634832
47.969237,-0.021691,1.480459,0.884795
47.999358,0.141198,1.052475,0.741771
48.029479,-0.490536,0.789922,0.709438
48.069641,-0.254935,0.664438,0.747884
48.099762,-0.468524,0.405466,0.689655
48.129883,-0.369669,0.481191,1.128994
48.170044,0.098049,0.668998,0.975430
48.200165,0.555332,0.732824,0.772982
48.230286,0.447171,0.680786,0.701273
48.270447,0.461778,0.309674,0.564229
48.300568,0.666102,0.333993,0.330113
48.330689,0.627903,0.294303,0.237679
48.360810,0.359685,-0.079961,0.111388
48.400972,0.124808,-0.282227,-0.146592
48.431093,-0.095084,-0.166718,-0.170299
48.461214,0.095073,-0.384330,-0.192498
48.501375,0.367149,-0.233099,-0.490315
48.531496,0.486450,-0.032794,-0.085623
48.561617,0.798385,-0.191154,-0.804578
48.601778,0.083538,-0.755464,-1.075773
48.631900,0.531172,-0.572862,-0.958696
48.662021,0.915442,-0.601479,-0.806980
48.702182,1.396377,-0.411792,-1.099771
48.732303,1.440605,-0.555880,-1.169925
48.762424,0.711997,-0.602495,-1.318335
48.802585,-0.249374,-0.808892,-1.264053
48.832706,-0.044399,-0.840481,-1.061137
48.862827,0.249009,-0.629094,-1.099143
48.902989,-0.146785,-0.606140,-1.505691
48.933110,-0.376614,-0.713778,-1.118561
48.963231,0.189811,-0.815801,-0.855837
49.003392,0.075603,-0.866108,-1.070376
49.033513,-0.158619,-0.974942,-0.835876
49.063634,-0.456158,-1.105592,-0.334734
49.103795,-0.468093,-0.831946,0.026476
49.133916,-0.309023,-0.678070,0.041353
49.164037,-0.221803,-0.455647,0.232670
49.194158,-0.230028,-0.024179,0.571672
49.234320,1.069877,0.284258,-0.065216
49.264441,0.876671,0.153350,-0.351061
49.294562,-0.101389,-0.084485,0.265384
49.334723,0.186321,-0.156636,0.306466
49.364844,0.302010,0.063908,0.280379
49.394965,0.145251,0.275524,0.258509
49.435126,0.244711,0.272556,0.018699
49.465247,0.099304,0.001528,0.033245
49.495368,0.089226,0.022381,-0.225972
49.535530,-0.046076,-0.044466,-0.812724
49.565651,0.083167,-0.001708,-0.628865
49.595772,0.032634,0.152326,-0.270668
49.635933,0.154287,0.367043,-0.103210
49.666054,-0.050134,0.360415,-0.028973
49.696175,-0.101876,0.427315,-0.248102
49.736337,-0.608032,0.874418,0.259304
49.766458,-0.824156,0.841847,0.557715
49.796579,-0.703374,1.078281,0.638626
49.836740,-0.376152,1.427969,0.700363
49.866861,-0.127119,1.207399,0.701572
49.896982,0.080739,1.160176,0.768340
49.937143,0.331203,1.689208,1.173572
49.967264,-0.468260,1.130351,1.085680
49.997385,-1.096990,0.701168,0.829208
50.027506,-1.080696,0.456691,1.029997
50.067668,-0.992878,0.397276,1.221036
50.097789,-0.809884,0.763239,0.989035
50.127910,-0.807016,0.755578,0.985467
50.168071,-0.702422,0.721517,0.819068
50.198192,-0.879296,0.651668,0.513696
50.228313,-0.717026,0.574033,0.368454
50.268474,-0.258456,0.455775,0.198909
50.298595,0.001651,0.256747,0.240298
50.328716,-0.273764,0.011794,0.148333
50.368878,-0.257377,-0.329113,-0.039639
50.398999,-0.043109,-0.521035,-0.352064
50.429120,-0.105844,-0.540132,-0.446960
50.469281,0.271312,-0.308249,0.137648
50.499402,0.468819,-0.472735,0.005701
50.529523,0.269057,-0.516137,-0.345553
50.569684,1.378109,0.044414,-0.950167
50.599805,0.408399,-0.705095,-0.790926
50.629926,0.942138,-0.405885,-0.466932
50.670088,1.592395,-0.527566,-0.860871
50.700209,1.845528,-0.481079,-0.794318
50.740350,1.432186,-0.749616,-1.072404
50.770471,0.558863,-0.764226,-0.897369
50.800592,0.016998,-0.868469,-0.575905
50.840753,0.435449,-0.555287,-0.583642
50.870874,0.643150,-0.334641,-1.046491
50.900995,0.293109,-0.531440,-1.147646
50.941156,0.145272,-0.902338,-0.694625
50.971277,0.155516,-0.913275,-0.395306
51.001398,-0.103337,-0.755688,-0.414287
51.041560,0.099558,-0.785753,-0.619307
51.071681,0.302051,-0.787602,-0.308935
51.101802,-0.030148,-0.751077,-0.000117
51.141963,-0.726211,-0.820491,-0.172113
51.172084,-0.791200,-0.853037,-0.045276
51.202205,-0.992512,-0.936120,0.307618
51.242366,-1.286475,-0.890433,0.322514
51.272487,-0.962786,-0.627098,-0.073888
51.302608,-0.353666,-0.256601,-0.192838
51.332734,-0.341676,-0.408697,-0.105477
51.372896,-0.191654,-0.342927,-0.217114
51.403017,0.055943,0.079408,-0.210046
51.433138,0.454865,0.129431,-0.297839
51.473299,0.465960,0.134819,-0.433364
51.503420,0.600980,0.230137,-0.506926
51.533541,0.588961,0.196063,-0.408795
51.573702,0.650793,0.208488,-0.471628
51.603823,0.640074,0.348120,-0.324647
51.633944,0.644810,0.261758,-0.253005
51.674106,0.300806,0.322113,-0.337647
51.704227,0.005857,0.351872,-0.161597
51.734348,-0.373141,0.423836,0.114974
51.764469,-0.550736,0.630307,0.319711
51.804630,-0.186146,1.201418,0.693132
51.834751,0.353447,1.821950,1.120955
51.864872,0.478905,1.426752,1.412793
51.905033,-0.529981,0.919646,1.456730
51.935154,-0.557957,1.535283,1.771545
51.965275,-0.250040,1.184972,1.389425
52.005437,-0.512274,1.058919,1.260169
52.035558,-0.510621,0.887173,1.184471
52.065679,-0.479285,0.592825,1.161913
52.105840,-0.614602,0.695835,1.213674
52.135961,-0.712311,0.701061,1.326225
52.166082,-0.666915,0.566784,1.311018
52.206243,-0.482257,0.375441,1.095497
52.236364,-0.635301,0.263463,0.890762
52.266485,-0.604290,0.111042,0.664752
52.306647,-0.235637,0.200921,0.511677
52.336768,-0.112060,0.033013,0.408060
52.366889,0.055107,-0.116406,0.165765
52.407050,0.323767,-0.376953,-0.147644
52.437171,0.115504,-0.481124,-0.401851
52.467292,0.029697,-0.273650,-0.361725
52.507453,0.761876,-0.273130,-0.507942
52.537574,0.364643,0.004292,-0.573322
52.567695,0.560128,-0.305867,-0.979157
52.597816,1.148786,-0.694196,-1.136658
52.637977,1.098035,-0.782088,-0.871893
52.668098,0.556444,-0.798944,-0.764344
52.698219,0.432462,-0.918745,-0.830486
52.738381,0.043351,-0.878253,-0.947336
52.768502,-0.065516,-0.697357,-1.067553
52.798623,0.247875,-0.624956,-1.127778
52.838784,0.373057,-0.675853,-0.840705
52.868905,0.220901,-0.853827,-0.850217
52.899026,0.048474,-0.930964,-0.766645
52.939187,0.209789,-0.876154,-0.632519
52.969308,0.254384,-0.726868,-0.567844
52.999429,0.225155,-0.630111,-0.603286
53.039591,0.060946,-0.591616,-0.565450
53.069712,0.048717,-0.470487,-0.367406
53.099833,-0.043112,-0.347656,-0.193269
53.139994,-0.190663,-0.241130,0.012159
53.170115,0.191458,-0.100398,0.101474
53.200236,0.495177,-0.087529,-0.063662
53.240397,0.198256,-0.143614,-0.057558
53.270518,0.051310,-0.164804,-0.003094
53.300639,0.075201,-0.121505,-0.061531
53.340801,0.394267,0.026393,-0.227144
53.370922,0.195201,0.025521,-0.155861
53.401043,0.148402,-0.000903,-0.120134
53.431164,0.205832,0.002291,-0.232118
53.471325,0.333834,0.184959,-0.162439
53.501446,0.386161,0.182953,-0.167529
53.531567,0.399130,0.183742,-0.220848
53.571728,0.499853,0.208529,-0.304932
53.601849,0.736794,0.526440,-0.270471
53.631970,0.447500,0.496125,-0.119643
53.672131,0.198437,0.755228,-0.063094
53.702252,-0.053459,0.867190,0.253750
53.732373,-0.432136,0.934880,0.478292
53.772535,-0.617804,1.117917,0.731423
53.802656,-0.507917,1.076534,0.869164
53.832777,-0.154669,1.124318,1.144017
53.872938,-0.349419,0.853916,1.128997
53.903059,-0.275684,0.829496,1.200460
53.933180,-0.103619,1.068651,1.404309
53.973341,-0.933327,0.764480,1.365864
54.003462,-1.030669,0.657426,1.422484
54.033583,-0.917779,0.609020,1.308465
54.073745,-0.801193,0.628260,1.273234
54.103866,-0.667344,0.566256,1.158868
54.133987,-0.685071,0.414641,1.020217
54.174148,-0.807850,0.209546,0.964325
54.204269,-0.721007,0.190846,0.880707
54.234390,-0.395797,0.236404,0.638489
54.264511,-0.412275,0.200460,0.451920
54.304671,-0.349771,0.018708,0.271896
54.334792,0.024684,-0.027709,0.145215
54.364913,0.101314,-0.130110,-0.194033
54.405075,-0.160322,-0.315491,-0.647219
54.435196,0.447621,0.166546,-0.115212
54.465316,0.872684,-0.210364,-0.063945
54.505478,0.565756,-0.221121,-0.576671
54.535599,0.208908,-0.246107,-0.880935
54.565720,-0.180011,-1.075841,-0.944190
54.605881,0.394779,-0.571655,-0.698418
54.636002,0.179489,-0.594313,-1.046216
54.666123,0.543678,-0.820648,-1.298204
54.706279,0.342286,-0.858725,-0.767158
54.736400,-0.110374,-0.893510,-0.754495
54.766521,-0.459240,-0.880831,-0.891806
54.806682,0.009563,-0.733732,-0.589474
54.836803,0.446132,-0.652205,-0.563524
54.866924,0.434983,-0.769489,-0.755675
54.907086,0.055354,-0.895320,-0.486369
54.937207,-0.148702,-0.872378,-0.575166
54.967329,-0.450781,-0.848483,-0.739062
55.007489,-0.640867,-0.792692,-0.313442
55.037610,-0.648509,-0.694555,-0.143177
55.067731,-0.514118,-0.633882,0.012272
55.107893,-0.346215,-0.645183,-0.128108
55.138014,-0.048189,-0.539261,0.055114
55.168134,0.238100,-0.242984,0.282792
55.208296,0.531260,-0.121133,0.587634
55.238417,1.201686,-0.426594,0.533957
55.268538,1.338508,-0.165877,0.528443
55.298659,1.029657,0.544750,0.695602
55.328811,0.818317,0.525387,0.968294
55.358932,1.434041,0.479127,0.858403
55.399093,0.492396,1.017365,0.404566
55.429214,-0.670068,0.992170,0.604600
55.459335,0.558856,0.685928,0.278771
55.499496,0.359148,0.129454,-0.043536
55.529617,-0.174381,0.086563,-0.051196
55.559738,-0.360161,0.180549,-0.208350
55.599900,-0.612137,0.179700,-0.480038
55.630021,-0.971716,0.004806,-0.269672
55.660142,-0.657833,-0.099557,-0.252417
55.700303,-0.551658,0.189533,-0.415862
55.730424,-1.065338,0.227411,0.064602
55.760545,-1.469488,0.479555,0.131971
55.800706,-1.933159,0.664991,0.621367
55.830827,-1.770611,0.774149,0.624884
55.860948,-1.546479,0.996581,0.615589
55.901110,-0.477326,0.922861,0.551583
55.931231,-0.427880,0.548744,0.576855
55.961352,-0.082649,0.745910,0.726104
55.991473,-0.096215,1.040588,0.714070
56.031634,-0.553750,0.810588,0.767269
56.061755,-0.764076,0.622748,0.848685
56.091876,-0.800226,0.622710,0.898347
56.132037,-0.491459,0.629778,0.805877
56.162158,-0.184737,0.586440,0.798205
56.192279,0.108958,0.438154,0.758765
56.232441,0.354957,0.428651,0.540962
56.262562,0.511709,0.293456,0.273878
56.292683,0.534219,0.087302,0.198487
56.332844,0.370608,-0.107638,0.189473
56.362965,0.095269,-0.254661,0.041326
56.393086,0.123138,-0.449911,-0.167700
56.433248,0.167804,-0.399911,0.059116
56.463369,0.560208,-0.321253,0.225840
56.493490,0.547521,-0.469844,-0.004080
56.533651,0.953278,-0.247689,-0.105972
56.563772,1.130729,-0.390774,-1.019850
56.593893,0.734685,-0.507765,-0.814201
56.634054,1.157089,-0.426939,-0.368913
56.664175,1.416270,-0.650278,-0.657323
56.694296,2.014925,-0.602526,-0.924381
56.734458,1.285169,-0.743570,-1.183760
56.764579,0.501395,-0.693645,-0.880880
56.794700,0.197203,-0.894635,-0.585807
56.834861,-0.683157,-1.039339,-0.833831
56.864982,-0.549357,-1.197450,-0.789781
56.895103,-0.269697,-1.082652,-0.867502
56.925224,0.054121,-0.936390,-0.918164
56.965385,-0.530902,-0.621340,-0.606727
56.995507,-0.420402,-0.588343,-0.433655
57.025628,0.245361,-0.798075,-0.447661
57.065789,0.610421,-1.001603,-0.419635
57.095910,0.297998,-0.897515,-0.650854
57.126031,0.903883,-0.619842,-0.696668
57.166192,1.214747,-0.094274,-0.311525
57.196313,0.561055,0.498979,-0.112560
57.226434,-0.022035,0.629350,0.068488
57.266596,0.947614,0.340648,-0.064355
57.296716,0.579868,0.281071,-0.179698
57.326837,-0.262614,0.031532,-0.050666
57.366998,-0.426152,-0.247808,-0.098684
57.397119,-0.009577,-0.141587,-0.260742
57.427240,0.124510,0.124774,-0.240836
57.467402,0.443003,0.243410,-0.144226
57.497523,0.112023,0.280458,-0.142219
57.527644,0.004972,0.168107,-0.290010
57.567806,0.209487,0.127676,-0.309540
57.597927,-0.096257,0.307805,-0.199999
57.628047,0.050981,0.561185,-0.221717
57.668208,0.140946,0.720134,-0.255099
57.698329,-0.107220,0.684331,0.105664
57.728450,-0.107775,0.809295,0.354105
57.758571,0.502923,1.322228,0.457548
57.798733,0.049308,0.843508,0.439350
57.828854,-0.392582,0.454613,-0.059669
57.858975,-0.886651,0.300120,0.429063
57.899136,-0.569784,0.577986,0.885504
57.929257,0.674947,0.740526,0.326884
57.959379,1.087145,0.639635,-0.034836
57.999540,0.226523,0.481851,0.380274
58.029661,-0.054609,0.452199,0.731993
58.059782,0.030885,0.161578,0.902546
58.099944,-0.229196,0.347542,0.862721
58.130065,-0.458979,0.412574,0.988543
58.160185,-0.231445,0.544866,1.056360
58.200347,0.238785,0.372943,0.850339
58.230468,0.414907,0.594130,0.718423
58.260589,0.632909,0.598480,0.784095
58.300754,0.657453,0.731143,0.676841
58.330875,0.654738,0.400824,0.775387
58.360996,0.338558,0.286449,0.755075
58.401157,0.515197,0.091298,0.245292
58.431278,0.246027,-0.159038,-0.038278
58.461399,-0.520268,-0.492169,-0.085825
58.501561,-0.734455,-0.770886,0.294236
58.531682,-0.332369,-0.611951,0.404125
58.561803,0.095794,0.135677,-0.905851
58.591924,-0.108066,0.035292,-0.825448
58.632085,0.245370,-0.335931,-0.710189
58.662206,0.372862,-0.447490,-0.985679
58.708613,0.069469,-0.585160,-1.105633
58.738734,-0.198175,-1.132115,-0.800809
58.768855,-0.341450,-0.852147,-0.440829
58.809016,-0.687538,-0.840255,-0.824390
58.839137,-0.667507,-0.494530,-0.847580
58.869258,-0.356736,-0.693688,-0.627840
58.899379,-0.121374,-0.584993,-0.381447
58.939541,0.260371,-0.470052,-0.432258
58.969662,0.332521,-0.414342,-0.860971
58.999783,0.415171,-0.410508,-0.774997
59.039944,0.664280,-0.154199,-0.837456
59.070065,1.104984,-0.106985,-0.920566
59.100186,0.821323,-0.058760,-0.943253
59.140347,0.518549,0.177816,-0.420920
59.170468,0.871614,0.127469,-0.737950
59.200589,0.507902,0.090704,-0.554247
59.240751,0.083602,-0.082987,-0.254338
59.270872,0.529402,0.015700,-0.538706
59.300990,0.548238,-0.023337,-0.598651
59.331141,0.107976,-0.069821,-0.483393
59.361262,-0.550650,-0.063915,-0.312318
59.401424,-0.766652,-0.080782,0.006527
59.431545,-0.627277,0.142696,0.097321
59.461666,-0.464333,-0.005514,0.043107
59.491787,-0.473328,-0.256548,-0.179008
59.531948,-0.244542,-0.149123,-0.198321
59.562069,-0.069610,0.111852,-0.222811
59.592190,-0.145632,0.300780,-0.062565
59.632352,-0.628445,0.169465,0.285404
59.662473,-0.679600,0.279256,0.276792
59.692594,-1.128640,0.290380,0.266852
59.732755,-1.013459,0.283191,0.499705
59.762876,-0.603432,0.264193,0.279417
59.792997,-0.349868,0.485882,0.285310
59.833158,-1.226432,0.504984,0.778517
59.863279,-1.148965,0.682748,0.714102
59.893400,-0.868297,0.720485,0.313599
59.933562,-0.853550,0.774475,0.631421
59.963683,-1.089397,0.952629,0.816907
59.993804,-0.385672,0.853054,0.586795
60.033965,0.221007,0.855647,0.489017
60.064086,-0.027269,0.997669,0.857921
60.094207,-0.552102,0.687444,0.950799
60.134369,-0.572607,0.599515,0.943547
60.164490,-0.685178,0.570360,1.092983
60.194611,-0.338861,0.656410,1.227034
60.234772,0.026006,0.610556,0.800291
60.264893,0.074784,0.661253,0.681771
60.295014,-0.046080,0.672318,0.518578
60.325135,0.088384,0.575868,0.378446
60.365297,0.277225,0.404528,0.315535
60.395418,0.295378,0.272621,0.252181
60.425539,0.017227,0.006070,0.133682
60.465700,-0.328965,-0.573350,-0.436849
60.495821,-0.136990,-0.660946,-0.766996
60.525942,0.328832,-0.758730,-0.556511
60.566104,0.537808,-0.931009,-1.246090
60.596225,0.922730,-0.332266,-1.563264
60.626346,0.781299,-0.197810,-1.560411
60.666507,0.004217,-1.352902,-1.109818
60.696628,0.567971,-0.204019,-1.006350
60.726749,0.381178,-0.542611,-0.774631
60.766910,1.119404,-0.820888,-0.747859
60.797031,0.693188,-0.962862,-0.604683
60.827152,-0.076109,-0.901629,-0.256624
60.867314,-0.268703,-0.756081,0.028449
60.897435,-0.111376,-0.658019,-0.177554
60.927556,0.030194,-0.512809,-0.215700
60.967717,0.177016,-0.422854,-0.225677
60.997838,0.289718,-0.454855,-0.152861
61.027959,0.148891,-0.388034,-0.214445
61.068121,0.146973,-0.424748,-0.241883
61.098242,0.181718,-0.294436,-0.265776
61.128363,0.279038,-0.200676,-0.273319
61.158484,0.180489,-0.337367,-0.164540
61.198645,0.096881,-0.326593,-0.002756
61.228766,0.465568,-0.427637,-0.079977
61.258887,0.854559,-0.247469,-0.140963
61.299049,0.614702,0.039721,0.083782
61.329170,-0.391909,0.175468,0.025171
