time_tick,gyr_X_value,gyr_Y_value,gyr_Z_value
0.007022,-0.518173,1.107681,-0.044159
0.037140,0.162668,0.643844,0.191901
0.077297,0.557212,-0.606151,0.147612
0.107414,-0.115110,-0.509698,0.573027
0.137532,-0.097495,-0.057008,0.881769
0.177689,-0.524219,0.233889,1.242098
0.207806,0.566116,-0.378968,0.647814
0.237924,1.241115,-1.130157,0.022272
0.278081,-0.324384,-0.626596,0.879900
0.308198,0.015794,-0.417118,0.841986
0.338316,0.395023,-0.347053,0.548890
0.368433,0.838149,-0.263785,0.702484
0.408590,0.654661,-0.429623,0.603388
0.438708,0.033599,-0.141485,0.787225
0.468825,-0.202766,-0.106209,0.270163
0.508982,-0.117828,0.055657,-0.750045
0.539100,0.215641,-0.179086,-1.167442
0.569217,0.673477,-0.466572,-1.650967
0.609374,-1.023953,-0.100438,-0.239747
0.639492,-1.238447,-0.019818,-0.140903
0.669609,-1.457813,0.194349,0.199458
0.709766,-0.749771,0.241286,0.734893
0.739884,-0.008326,0.572575,1.539711
0.770001,0.041062,0.018597,0.834185
0.810158,0.440957,0.110959,-0.402024
0.840275,0.773337,-0.299750,-0.524818
0.870393,1.483324,-1.526409,-0.583595
0.910550,1.733076,-2.780523,-0.806571
0.940667,1.256714,-3.650371,-1.327258
0.970785,0.735488,-3.479440,-1.131957
1.010942,-0.078952,-0.856791,-0.499019
1.041059,0.471607,0.319443,-0.369722
1.071177,1.245116,0.539132,-0.414772
1.111334,0.412766,0.435096,-0.844783
1.141451,0.355588,0.081344,-0.811676
1.171569,0.504923,-0.429261,-0.773971
1.201686,0.270258,-0.226458,-0.310337
1.241843,0.461331,-0.223704,-0.269541
1.271961,0.450166,-0.268651,-0.040513
1.302078,1.001034,-0.330628,0.092545
1.342235,0.300287,-0.315218,-0.229505
1.372353,-0.514896,-0.824172,-0.326226
1.402470,-0.036378,-0.629707,-0.350016
1.442627,1.282096,-0.012208,-0.351139
1.472745,0.719952,-0.010007,-0.494268
1.502862,0.288247,-0.134979,-0.596051
1.543019,0.204810,0.336541,-0.507095
1.573137,0.372804,0.507664,-0.111007
1.603254,-0.182898,0.763721,-0.036248
1.643411,-0.723163,0.725381,0.434803
1.673529,-0.588958,1.117777,0.427814
1.703646,-1.856174,1.232217,0.275423
1.743803,-2.798883,0.804498,0.325369
1.773920,-2.171749,0.661872,0.475820
1.804038,-1.345533,0.665605,0.487032
1.844195,-0.395248,0.791911,0.595479
1.874312,0.106497,0.748367,0.931740
1.904430,-1.384861,-0.209508,0.783828
1.944587,-0.933783,-1.120831,0.609725
1.974704,0.025468,-0.952310,0.438124
2.004822,0.328629,-1.199144,0.126068
2.034939,0.530059,-1.375719,-0.145740
2.075096,0.812822,-0.915316,-0.382922
2.105214,0.524261,-0.914819,-0.566664
2.135331,-0.011195,-0.431036,-0.241882
2.175488,-1.068924,0.731930,0.733783
2.205606,0.185122,0.274663,0.828465
2.235723,0.169485,0.201660,0.671133
2.275880,1.007364,-0.558757,0.232377
2.305998,0.168654,-0.992542,0.225854
2.336115,-1.240431,-0.004127,-0.047286
2.376272,0.588113,-0.342144,-1.082922
2.406390,0.089353,-0.773850,-0.906671
2.436506,0.696380,-1.421978,-0.435149
2.476663,0.568200,-0.909696,-0.354739
2.506780,1.386820,-0.114019,-0.357554
2.536898,1.131267,-0.224845,-0.529875
2.577055,0.633303,-0.915703,-0.820867
2.607172,0.563809,-0.778358,-0.508010
2.637290,0.841583,-0.373074,-0.298591
2.677447,1.325060,-0.250937,-0.611610
2.707564,1.026043,-0.563950,-0.694857
2.737682,0.883941,-0.569069,-0.578301
2.777839,0.855704,-0.015179,-0.536419
2.807956,0.938966,0.375025,-0.510908
2.838074,1.233384,0.553105,-0.159879
2.878230,1.177074,1.644877,0.034651
2.908348,1.129393,2.113200,0.255437
2.938466,-0.293898,2.857763,0.801333
2.968583,-2.442664,2.848583,0.850616
3.008740,-2.046494,1.203748,0.500337
3.038857,-1.908139,1.542839,1.036880
3.068975,-0.952767,2.187535,1.046871
3.109132,-1.086176,1.046437,0.987908
3.139249,-1.508026,-0.066568,1.320636
3.169367,-1.560531,-0.087260,1.366524
3.209524,-1.229461,-0.242445,0.787715
3.239641,-0.600807,-0.977706,0.351126
3.269759,0.102306,-1.355504,0.050278
3.309916,-0.361439,-1.593762,-0.255218
3.340033,-0.924782,-1.855126,-0.177271
3.370151,-1.054367,-0.197216,0.010918
3.410309,-1.304666,0.759629,1.040405
3.440427,-0.020170,-0.391649,0.621200
3.470545,0.477656,0.117483,0.762572
3.510701,0.391546,-1.522482,0.381091
3.540819,-1.780088,-0.678293,0.120970
3.570936,0.549776,-0.619595,-0.941756
3.611093,1.033892,-0.567613,-0.214836
3.641211,1.787440,-1.032140,0.169877
3.671328,2.234405,-1.627811,-0.027756
3.701446,1.935970,-1.581764,-0.638530
3.741603,1.420299,-0.762480,-0.563853
3.771720,1.481667,-1.294375,-0.410121
3.801838,1.763425,-1.247562,-0.281901
3.841995,1.608577,-0.950317,-0.327748
3.872112,0.935534,-0.933574,-0.453600
3.902230,1.125698,-0.424213,-0.375768
3.942386,1.487947,0.331279,-0.133831
3.972504,1.071830,0.239478,-0.102100
4.013891,0.861854,0.282150,0.128792
4.044009,0.823979,0.575514,0.798429
4.084165,0.388825,1.906742,0.775221
4.114283,-0.096015,1.697645,0.873335
4.144401,0.293193,1.387490,1.340068
4.184557,-0.020841,1.204191,1.690766
4.214675,-0.275286,0.975055,1.522580
4.244792,0.159267,1.274772,1.438333
4.274910,-0.278680,0.644916,1.305328
4.315067,-1.496760,-0.746793,0.704975
4.345184,-1.584098,-0.561834,0.301870
4.375302,-1.090875,-0.698543,-0.016940
4.415459,-0.468112,-0.628392,-0.402870
4.445576,-0.139408,-0.993320,-0.469085
4.485733,-0.710849,-1.272961,-0.871620
4.515850,-1.061916,-0.765482,-0.537731
4.545968,-1.623030,0.048691,0.658977
4.576086,-0.909302,0.133864,0.919727
4.606203,-1.735389,0.125855,0.450117
4.636355,-0.651990,0.410239,0.084078
4.666473,0.477061,-0.477032,-0.161127
4.706629,0.553780,-0.183809,-0.256742
4.736747,0.346750,0.355035,-0.684009
4.766864,1.250328,0.096642,-0.523550
4.807021,2.154924,-0.699835,-0.323015
4.837139,2.332278,-0.774366,-0.512497
4.867256,1.801022,0.280163,-0.817280
4.907413,1.245729,-0.511284,-0.829285
4.937531,1.191906,-0.998471,-0.555403
4.967648,0.977332,-0.865471,-0.496296
5.007805,0.748712,-0.708744,-0.660247
5.037922,-0.302686,-0.084984,-0.831741
5.068040,-0.526259,0.595663,-1.168831
5.108197,0.227503,0.543245,-0.999085
5.138314,-0.054071,0.936096,-0.549591
5.168432,0.368132,1.325544,-0.217583
5.208589,-0.277013,1.908423,0.404797
5.238706,-1.130290,2.343840,0.797624
5.268824,-2.263334,3.131486,0.986213
5.298941,-1.746340,2.502518,0.486898
5.339098,-2.249964,1.608951,1.071733
5.369216,-1.702737,1.529701,1.088364
5.399333,-0.783760,1.455252,0.788917
5.439489,-1.438021,0.145220,0.990427
5.469607,-1.542692,-0.377351,0.918176
5.499724,-1.356869,-0.595746,0.849568
5.539881,-1.060170,-1.623572,0.473486
5.569998,-0.403895,-1.701795,-0.038401
5.600116,-0.514449,-1.473689,-0.328797
5.640273,-1.616228,-1.929090,-0.268464
5.670390,-1.744891,-0.262496,-0.152134
5.700508,-1.565858,1.205277,0.577184
5.740665,-0.583516,-0.268873,0.704090
5.770782,-0.119363,-0.276384,0.783777
5.800900,1.177753,-1.694260,0.301892
5.841056,-2.798839,1.217592,-0.282576
5.871174,2.606462,0.181576,-0.987222
5.901292,2.240857,0.391531,-0.616896
5.941448,0.091867,-1.028405,-0.855668
5.971566,0.725923,-2.767893,-0.445337
6.001683,1.149681,-1.670183,-0.300272
6.041840,0.055094,-0.509946,-0.280230
6.071958,0.229167,-1.192284,-0.359715
6.102075,1.193232,-1.787479,-0.230643
6.142232,0.783477,-0.755861,-0.295140
6.172350,0.511763,-0.479336,-0.292360
6.202467,0.500329,-0.137046,-0.268722
6.232585,0.276313,0.091284,-0.266348
6.272742,0.309068,0.457722,-0.283369
6.302859,0.461945,0.922180,-0.160966
6.332977,-0.083772,1.846023,0.125325
6.373133,-0.428332,2.704866,0.136565
6.403251,-1.177436,2.668048,-0.086705
6.433369,-1.304626,1.791825,0.280248
6.473525,-0.181669,2.237310,1.050611
6.503643,0.794088,1.828790,0.612439
6.533760,-0.393217,1.322753,0.413973
6.573917,-2.190128,0.311063,0.638905
6.604035,-2.215827,-0.086131,0.640579
6.634152,-2.063417,-0.299841,0.772548
6.674309,-0.855819,-0.397298,0.283813
6.704427,-0.951098,-1.125664,0.238462
6.734544,-1.075783,-1.995369,0.323534
6.774701,-0.677398,-1.603395,0.158420
6.804818,0.275980,0.705614,0.285832
6.834936,1.362868,2.587698,0.537266
6.875093,1.519593,1.314611,0.459870
6.905210,1.367259,0.046837,0.568870
6.935328,0.681868,-0.320878,0.157877
6.975485,-1.305852,-1.231680,-0.111525
7.005602,-0.456136,-0.773996,-0.213138
7.035720,0.391549,0.814406,-0.010038
7.065837,0.686638,-0.289129,0.266672
7.105994,0.623629,-3.062433,0.572356
7.136111,0.313942,-3.331469,0.380989
7.166229,-0.265063,-1.753185,0.071602
7.206386,-0.186918,-0.700186,0.205045
7.236503,0.285534,-0.911278,0.405530
7.266621,0.855343,-1.137962,0.450806
7.306778,0.512345,-1.538858,-0.013094
7.336895,0.564181,-0.857213,-0.004908
7.367013,1.002112,-0.626599,-0.393608
7.407169,0.770663,-0.140107,-0.505628
7.437290,0.502076,0.130330,-0.680684
7.467408,-0.098059,0.868631,-0.669021
7.507564,-0.324590,2.497375,-0.818901
7.537682,-0.601713,2.438912,-0.296012
7.567799,-0.497932,1.857961,0.673673
7.607956,0.758003,1.432306,0.595466
7.638074,0.392583,1.678849,0.494652
7.668191,0.247547,2.407198,0.711657
7.708348,-1.569519,0.629949,0.735072
7.738466,-1.765618,-0.162270,0.684673
7.768583,-1.372832,-0.063344,0.668960
7.808740,-0.413746,-0.385988,0.469447
7.838857,0.174190,-0.970672,0.077095
7.868975,0.276817,-1.368862,0.009916
7.899093,-0.155946,-1.363399,-0.028714
7.939249,-0.851530,-0.172114,0.447636
7.969367,-1.003798,0.382764,0.729895
7.999484,-1.531247,-0.119368,0.588473
8.039641,0.302314,0.592423,0.706580
8.069759,1.639124,-0.332762,0.124703
8.099876,-0.753630,-0.481574,-0.276869
8.140033,0.800823,-0.028486,-0.370589
8.170150,1.408361,-0.736777,0.129113
8.200268,0.945283,-1.805706,0.315099
8.240425,0.163383,-1.389113,0.216260
8.270542,1.045787,-0.859739,-0.158606
8.300660,0.510856,-1.160055,-0.460728
8.340817,0.407901,-1.102770,0.044003
8.370934,-0.152303,-1.479802,0.224090
8.401052,-1.284755,-1.079075,0.645756
8.441209,0.732545,-0.108105,0.218488
8.471327,-0.151566,0.004603,0.273095
8.501444,-0.013976,0.500393,0.169206
8.547841,0.133173,0.989952,0.113882
8.577959,-0.351935,1.657583,-0.168474
8.608076,-1.460242,2.655070,-0.333143
8.648233,-1.151539,2.681082,0.211347
8.678351,0.004884,2.308208,0.642065
8.708468,1.100789,1.108826,0.706460
8.748625,0.040835,0.090436,-0.091684
8.778743,-1.493899,1.108355,0.321263
8.808860,-2.077985,0.478687,0.906304
8.849017,-1.763179,-0.811470,0.383516
8.879134,-1.288986,-1.074047,0.317415
8.909252,-0.397864,-1.387748,0.139400
8.949409,0.679129,-2.323402,-1.227866
8.979526,0.693842,-2.643608,-1.455258
9.009644,0.072997,-1.760569,-0.780146
9.049801,-1.621636,0.589470,0.079470
9.079918,-1.007520,0.040774,-0.155553
9.110036,-0.875925,-0.834887,-0.169464
9.150192,0.634099,0.340575,0.103566
9.180310,1.263461,-0.257847,-0.373410
9.210427,0.194003,-0.594399,-0.428023
9.240545,1.715762,-0.356218,-0.483862
9.280702,2.492697,-0.306881,0.242486
9.310819,2.014340,-1.713653,0.050581
9.340937,1.513853,-2.211907,-0.156109
9.381094,0.964844,-0.636640,-0.046155
9.411211,1.228405,-0.816568,0.032137
9.441325,0.973232,-1.519527,0.062475
9.481481,0.778996,-1.452310,0.029897
9.511599,0.919280,-1.073948,-0.173116
9.541716,0.718828,-0.204140,-0.295134
9.581873,1.120836,0.247949,-0.117970
9.611991,1.234561,-0.190230,-0.246308
9.642108,0.998356,0.197157,-0.339963
9.682265,0.667863,0.709374,0.028293
9.712383,0.055769,1.669814,-0.015581
9.742500,-1.308477,2.917244,-0.138214
9.782657,-2.600439,2.877951,-0.322007
9.812775,-2.416585,2.211384,0.057464
9.842892,-1.202795,2.509324,0.362162
9.883049,-0.565315,2.853578,0.431896
9.913166,-1.630781,2.065201,0.603956
9.943284,-1.990790,1.133516,0.744110
9.983441,-2.083506,0.216314,0.436241
10.013558,-1.389870,-0.094281,0.362716
10.043676,-0.551059,-0.569966,0.366005
10.083832,0.361819,-1.375088,0.012074
10.113950,1.188616,-2.296180,-0.222149
10.144068,0.808774,-1.425974,-0.015708
10.174185,-0.328740,1.042359,0.107505
10.214342,-0.824934,0.572750,0.464536
10.244459,-0.150684,-0.055849,-0.152364
10.274577,0.664774,0.711815,-0.106358
10.314734,0.819484,-0.708513,-0.259222
10.344851,0.433618,-0.930368,-0.572029
10.374969,0.878840,-1.013769,-0.463772
10.415126,1.092609,-1.908024,0.254103
10.445243,1.835380,-2.422910,0.348255
10.475361,1.343248,-1.255270,-0.054835
10.515517,1.524733,-0.474554,-0.138821
10.545635,1.832732,-1.202434,0.108614
10.575753,1.703811,-1.737898,0.101685
10.615909,1.094538,-0.793391,0.076222
10.646027,0.555420,-0.730612,-0.195109
10.676144,0.825504,-0.419843,-0.244420
10.716301,0.685676,0.164594,-0.015322
10.746419,0.878327,0.185119,-0.212890
10.776536,0.748115,0.376401,-0.060950
10.816693,-0.167931,1.683217,-0.240459
10.846811,-1.780062,2.948801,-0.163143
10.876928,-2.624252,3.151311,-0.233191
10.917085,-2.013981,1.824581,0.448172
10.947202,-1.308854,2.535147,0.835522
10.977320,-0.795800,2.481107,0.824852
11.017477,-1.690585,1.366116,0.827784
11.047594,-1.871467,0.869702,0.819237
11.077712,-1.892238,0.281292,0.729980
11.107829,-1.572673,-0.221331,0.582279
11.147986,-0.614306,-0.726481,0.449792
11.178104,0.171141,-1.250921,0.252426
11.208221,0.784132,-1.948839,-0.194929
11.248378,0.949317,-1.761759,-0.121694
11.278496,0.040977,0.408399,0.006554
11.308613,-1.109852,1.231176,0.218399
11.348770,-0.229984,-0.115093,0.314978
11.378888,0.308787,0.079615,0.113933
11.409005,1.179735,0.035788,0.062244
11.449162,0.237956,-0.791116,-0.075197
11.479279,0.916829,-0.990267,-0.600783
11.509397,1.036061,-0.592475,-0.581985
11.549554,1.181229,-2.152659,0.129772
11.579671,1.457738,-2.129342,0.354072
11.609789,1.391488,-0.821219,-0.041474
11.649946,1.027369,-0.847032,-0.342763
11.680063,1.197309,-1.536807,-0.174010
11.710181,0.784162,-1.656905,0.023598
11.750338,1.172507,-1.160133,-0.025184
11.780455,1.115954,-0.991323,-0.215425
11.810573,0.540710,-0.516979,-0.471980
11.850729,0.881719,-0.055667,-0.115611
11.880847,1.086523,0.026476,-0.229574
11.910965,1.152551,0.348383,-0.086483
11.941082,0.270505,1.499704,-0.022204
11.981239,-1.487287,2.555377,0.076885
12.011356,-2.338107,3.278363,-0.150739
12.041474,-2.375564,2.471021,0.196812
12.081631,-1.432967,1.859429,0.858138
12.111748,-0.694646,2.935891,0.887225
12.141866,-1.625669,1.598007,0.772908
12.182023,-2.396097,0.994176,0.900028
12.212140,-1.671693,0.903974,0.808896
12.242258,-1.225683,0.361360,0.752568
12.282415,-0.874401,-0.346847,0.624084
12.312532,-0.262640,-0.921120,0.459675
12.342650,0.521569,-1.652004,0.064815
12.382806,1.429490,-2.209652,-0.169285
12.412924,0.542703,-0.732152,0.107259
12.443045,-1.010560,1.031363,0.175532
12.483201,-0.656675,-0.019502,0.489132
12.513319,0.513156,-0.587473,0.086354
12.543437,0.882921,0.174163,0.175985
12.583593,-0.322803,-0.611273,-0.192375
12.613711,0.408508,-1.266152,-0.362934
12.643828,1.561011,-0.847475,-0.656050
12.683985,1.702998,-0.092190,-0.118069
12.714103,1.680456,-1.742571,0.310134
12.744220,2.007903,-2.110921,0.256158
12.784377,0.155782,-0.977980,-0.383099
12.814495,0.464427,-1.056493,-0.254514
12.844612,1.092637,-1.200477,0.032878
12.874730,0.939463,-1.440843,-0.022297
12.914887,1.043429,-0.937942,0.003637
12.945004,0.649902,0.005942,-0.100013
12.975122,0.583142,0.134887,-0.208147
13.015278,0.954934,0.339598,-0.260542
13.045396,0.805387,0.595336,-0.065977
13.075514,0.158677,0.990621,-0.207741
13.115670,-0.968150,3.111145,-0.474819
13.145798,-2.156836,3.353557,-0.491543
13.175915,-2.308767,2.069019,0.046035
13.206033,-0.812774,1.798262,0.609255
13.246190,-1.289594,2.246006,0.855628
13.276307,-2.154737,1.187865,0.777276
13.306425,-2.182662,0.854839,0.806037
13.346582,-1.516058,0.453763,0.711451
13.376699,-1.160801,0.191189,0.595020
13.406817,-0.426207,-0.219992,0.489779
13.446969,0.365119,-1.020841,0.102951
13.477087,1.115321,-1.534150,-0.245849
13.507205,1.391963,-1.842930,-0.418171
13.547361,0.105542,-0.209186,-0.289696
13.577479,-1.234321,1.034806,0.176809
13.607597,-0.558373,0.197934,0.628242
13.647753,0.069161,0.300506,0.319445
13.677871,0.512371,0.036260,0.236104
13.707988,-1.069802,-0.674017,-0.197768
13.748145,1.154549,-1.707618,-0.333629
13.778263,2.054769,-0.044549,-0.518160
13.808380,1.437589,-0.068204,-0.078092
13.838498,1.513427,-2.344569,-0.058902
13.878655,1.127475,-1.639965,-0.192260
13.908772,0.551080,-0.796581,-0.134483
13.938890,0.977376,-1.147323,0.036362
13.979047,0.838862,-1.398468,-0.149010
14.009164,0.433366,-1.095948,-0.002663
14.039282,0.424993,-0.919644,0.034920
14.079438,0.656150,-0.179840,-0.355619
14.109556,0.906530,0.225858,-0.237211
14.139674,0.940664,0.598276,-0.089034
14.179830,-0.172570,1.791987,-0.070805
14.209948,-1.084780,2.251320,-0.128959
14.240066,-1.676740,3.253538,-0.299040
14.280222,-1.180161,1.955208,0.481018
14.310340,-1.085493,2.216174,0.842735
14.340458,-0.685647,2.465802,0.888390
14.380614,-1.685330,1.436040,0.765590
14.410732,-1.695101,1.067328,0.615875
14.440850,-1.313978,0.710983,0.507670
14.481007,-0.502610,0.157198,0.553120
14.511125,-0.189866,-0.481135,0.410778
14.541242,0.240754,-1.102201,-0.033633
14.581399,1.001385,-1.809373,-0.293416
14.611517,1.411537,-1.828873,-0.244922
14.641634,0.233425,0.399549,0.014769
14.681791,-1.008693,1.059378,0.656872
14.711909,-0.312326,-0.162912,0.379956
14.742026,0.470989,0.102464,0.035759
14.772144,0.510930,-0.439747,-0.216804
14.812301,-0.330802,-0.887760,-0.308017
14.842418,1.087246,-0.761094,-0.611048
14.872536,1.361933,-0.408407,-0.520259
14.912692,1.441256,-1.833378,0.025205
14.942810,1.299420,-2.103689,-0.110566
14.972928,0.535204,-0.871763,-0.373094
15.013084,0.822324,-1.056830,-0.164242
15.043202,1.515254,-1.717248,-0.072494
15.073319,1.238721,-1.486279,-0.128568
15.113476,0.770505,-0.928588,-0.031247
15.143594,0.461578,-0.842872,-0.236513
15.173711,0.406138,-0.166946,-0.401775
15.213868,0.825397,0.323317,-0.167176
15.243986,0.799133,0.440862,-0.108117
15.274103,0.242770,1.078377,-0.234377
15.314260,-0.766440,2.423824,-0.202450
15.344378,-1.779065,3.246675,-0.357018
15.374495,-2.148572,2.536624,0.056774
15.414652,-1.012628,1.618018,0.731264
15.444770,-0.642574,2.563325,0.962633
15.474887,-1.496150,1.726971,0.898963
15.515044,-2.151444,0.917261,0.764359
15.545161,-1.439285,0.690054,0.614269
15.575279,-0.757763,0.321141,0.673666
15.605397,-0.429826,-0.157713,0.536226
15.645553,0.195431,-0.952011,0.222471
15.675671,0.788680,-1.722976,-0.260987
15.705788,1.023486,-2.230506,-0.336890
15.745945,0.498804,-0.501098,-0.052107
15.776063,-1.007654,1.517008,0.053869
15.806180,-0.848204,0.320041,0.563475
15.846337,0.132332,0.200849,0.377547
15.876455,1.042371,-0.243487,0.480811
15.906572,-0.344972,-1.053728,0.151432
15.946729,0.516067,-1.237517,-0.528999
15.976847,1.731877,-0.246355,-0.928120
16.006964,1.881283,-0.295839,-0.395194
16.047121,2.378615,-2.826350,-0.082043
16.077238,0.991167,-1.040418,-0.444420
16.107356,0.116036,-1.001748,-0.526094
16.147513,0.819761,-1.347058,-0.148460
16.177630,1.246967,-1.414109,-0.064850
16.207748,1.247370,-1.570490,-0.147918
16.247905,0.422531,-0.954836,-0.182704
16.278022,0.493058,0.178164,-0.202520
16.308140,1.028247,0.035962,-0.131023
16.348297,1.007299,0.680663,-0.121666
16.378414,0.168336,1.927012,0.040642
16.408532,-0.965821,2.372457,0.110848
16.438649,-2.150635,4.001559,-0.158240
16.478806,-2.062039,1.826378,0.543945
16.508924,-1.552064,1.927230,0.969681
16.550326,-0.936498,2.358680,0.785727
16.580443,-1.866184,1.287614,0.868030
16.610561,-1.710010,0.974135,0.846150
16.650717,-1.182555,0.429150,0.714903
16.680835,-1.014003,0.103996,0.561051
16.710953,-0.833720,-0.497908,0.427260
16.751109,0.075951,-1.797129,0.091137
16.781227,0.920103,-2.502836,-0.253340
16.811344,0.930087,-1.904615,-0.021587
16.841462,0.418663,1.242003,-0.218758
16.881619,-1.946479,0.510953,0.548925
16.911736,-0.249889,-0.625615,0.239156
16.941854,1.003447,0.585349,0.547989
16.982011,0.083550,-0.092603,0.174681
17.012128,-0.183180,-1.365740,-0.459929
17.042246,0.248784,-0.376956,-1.092816
17.082402,1.931128,-0.734400,-0.372062
17.112520,2.937690,-2.322498,-0.137925
17.132598,2.523003,-1.821312,-0.223764
17.172790,0.847326,-1.080215,-0.528518
17.202907,0.764827,-1.449131,-0.121353
17.233025,1.265236,-1.703773,0.115393
17.273181,0.933542,-1.428172,-0.133555
17.303299,0.827210,-1.309807,-0.150821
17.333417,0.967448,-0.594061,-0.212341
17.373573,1.039478,0.138676,-0.251762
17.403691,1.237928,0.552003,-0.035967
17.433809,0.647289,1.275329,0.005466
17.473966,-0.317579,1.980031,-0.124487
17.504084,-1.011125,3.448872,0.022510
17.534201,-1.353444,2.711928,0.216765
17.574358,-1.706009,1.882162,0.750457
17.604476,-1.425935,2.042729,0.971484
17.634593,-1.296668,1.968158,0.846646
17.674750,-1.819231,1.090172,0.968931
17.704868,-1.612961,0.693152,0.731663
17.734985,-1.526482,0.179311,0.573541
17.775142,-0.634373,-0.406867,0.453737
17.805259,-0.268431,-1.015339,0.197702
17.835377,-0.043013,-1.603634,-0.081304
17.875534,0.350760,-2.205444,-0.375807
17.905651,-0.362173,-0.775393,0.100845
17.935769,-0.554507,0.758406,-0.066108
17.965886,-0.132709,0.898160,0.083323
18.006043,-0.603181,0.265332,-0.134702
18.036161,0.957598,0.500349,0.031784
18.066278,0.627589,-0.244287,0.101456
18.106435,0.299521,-0.794764,-0.491192
18.136553,0.933064,-0.691430,-0.205887
18.166670,1.653188,-1.634255,0.042932
18.206827,1.505169,-2.502405,-0.176206
18.236945,0.818882,-1.521739,-0.398293
18.267062,0.886065,-0.989627,-0.150525
18.307219,1.690835,-1.554437,0.142177
18.337336,1.504446,-1.517369,-0.078931
18.367454,0.979022,-1.154091,-0.221770
18.407611,0.829171,-0.394867,0.007234
18.437730,0.956883,0.189980,-0.117361
18.467848,0.620789,0.130500,-0.304295
18.508005,0.846606,0.133934,-0.104349
18.538122,0.160393,1.091906,-0.193541
18.568240,-0.726797,2.409204,-0.232549
18.608397,-1.966769,3.198234,-0.154848
18.638514,-1.829771,2.007124,0.442866
18.668632,-1.560224,1.797183,0.830750
18.708788,-0.742418,2.411132,0.963511
18.738906,-1.786406,1.306391,1.020039
18.769024,-2.500905,0.807227,1.109792
18.799141,-2.145952,0.674794,0.877090
18.839298,-1.128626,0.095353,0.590858
18.869416,-0.446720,-0.325894,0.457158
18.899533,-0.232211,-0.920882,0.219787
18.939690,0.651971,-1.882489,-0.235365
18.969807,0.868619,-2.403319,-0.171590
18.999925,-0.420199,-0.356225,-0.032874
19.040082,-2.000566,0.826418,0.483463
19.070199,-1.039329,-0.092613,0.420223
19.100317,0.229772,0.729794,0.088536
19.140474,0.958998,-0.861312,0.109625
19.170591,-0.420427,-0.846462,0.057205
19.200709,0.151065,-1.086779,-0.260443
19.240865,0.914231,-0.883054,0.059082
19.270983,1.478938,-1.782082,0.195590
19.301101,1.633056,-2.065643,0.002181
19.341257,1.081077,-1.120232,-0.159434
19.371375,1.679120,-1.016669,0.100343
19.401493,1.775186,-1.645955,0.069596
19.441646,1.369108,-1.414751,-0.214509
19.471764,0.905410,-0.772262,-0.021022
19.501881,1.269009,-0.464895,-0.027794
19.531999,1.153048,-0.264949,-0.251185
19.572156,0.823315,0.582764,-0.222929
19.602273,0.969085,0.514554,-0.044150
19.642430,0.061556,1.135553,-0.141422
19.672548,-1.339591,2.630661,-0.276646
19.702665,-2.623208,3.073815,-0.340546
19.732783,-2.381135,2.133622,0.046926
19.772940,-1.456369,1.798878,0.784413
19.803057,-0.486970,2.879145,1.101200
19.833175,-0.904766,2.083080,0.805093
19.873331,-2.024423,0.919559,0.717588
19.903449,-1.651961,0.695564,0.706864
19.933567,-1.068814,0.274332,0.691830
19.973723,-0.317834,-0.379083,0.346777
20.003841,0.334093,-0.769694,0.065435
20.033958,1.049856,-1.392473,-0.251312
20.074115,1.513700,-1.790184,-0.327074
20.104233,0.562167,-0.519738,-0.051476
20.134350,-1.261705,1.269266,0.383427
20.174507,-0.439140,-0.090508,0.607600
20.204625,0.450359,0.194856,0.155088
20.234742,0.824402,0.054669,0.104993
20.274899,-0.522750,-0.770482,-0.226977
20.305016,0.401621,-0.953528,-0.633184
20.335134,1.474170,-0.234688,-0.668075
20.375291,1.649685,-1.522252,0.095842
20.405408,1.773900,-2.601615,-0.009076
20.435526,0.823042,-1.137082,-0.334878
20.475683,1.233634,-0.472366,-0.139745
20.505800,1.640163,-1.536868,-0.035371
20.535918,1.408854,-1.738906,-0.198278
20.566035,0.812878,-1.425818,-0.194797
20.606192,0.500868,-0.825848,-0.129776
20.636310,0.430794,-0.200256,-0.361501
20.666427,0.605141,0.073292,-0.320818
20.706584,0.823169,0.029393,-0.237854
20.736701,0.405174,0.980087,-0.267628
20.766819,-0.513403,2.240616,-0.142096
20.806976,-1.938106,2.934702,-0.206161
20.837093,-2.132422,2.523779,-0.103976
20.867211,-1.483189,1.455106,0.619697
20.907368,-0.589554,2.655813,1.069706
20.937485,-0.971757,2.092180,0.794349
20.967603,-1.738680,1.330799,0.775358
21.007760,-1.695828,0.731607,0.716590
21.037877,-1.292632,0.263774,0.537290
21.067995,-0.405133,0.041635,0.427338
21.108151,0.247515,-0.720551,-0.021974
21.138269,0.798403,-1.365230,-0.365140
21.168386,1.353529,-1.810121,-0.463587
21.208543,-0.014646,-0.595282,-0.162601
21.238661,-1.080246,1.149153,0.319897
21.268778,-0.567078,0.527513,0.644762
21.298896,0.216509,-0.573222,0.020943
21.339053,0.899369,0.164695,0.251526
21.369170,-0.299620,-0.453875,0.073088
21.399288,0.068790,-1.047561,-0.036565
21.439444,1.373957,-0.271361,-0.648569
21.469562,1.538361,-1.105378,-0.122150
21.499680,1.700616,-2.850145,0.109152
21.539836,0.831064,-1.330743,-0.447791
21.569954,0.793168,-0.962078,-0.415895
21.600071,1.186458,-1.373500,-0.233289
21.640228,1.346671,-1.668714,-0.206812
21.670346,1.160620,-1.544768,-0.022935
21.712978,0.829854,-0.614996,-0.331408
21.743096,0.494529,0.361433,-0.393924
21.783252,0.763979,0.104478,-0.315786
21.813370,1.262663,-0.117458,-0.153338
21.843487,0.546421,1.166112,-0.143337
21.883644,-1.279374,2.494336,-0.074961
21.913762,-2.740218,2.427135,0.076932
21.943879,-3.244403,2.053547,0.230602
21.984036,-1.452998,2.043012,0.347861
22.014154,0.147731,3.574896,0.433734
22.044271,-0.412440,2.970635,0.459174
22.074389,-1.796816,1.283234,0.960810
22.114545,-2.015459,0.189691,1.108373
22.144663,-1.438439,-0.118854,0.722779
22.174780,-0.635032,-0.570054,0.383923
22.214937,-0.102591,-1.409993,0.231704
22.245055,0.596553,-1.930624,-0.010053
22.275172,0.888778,-2.119715,-0.078937
22.305290,-0.192292,-0.152940,0.311232
22.335442,-0.731266,1.607750,0.194586
22.375598,-0.619293,0.177024,0.394210
22.405716,0.195779,0.560108,-0.047492
22.435834,1.306299,0.077666,0.229507
22.465951,-0.389050,-1.138375,-0.060068
22.506108,0.542208,-0.893960,-0.635475
22.536225,1.806046,-0.350700,-0.383199
22.566343,1.850994,-1.569335,0.001639
22.606500,1.569965,-2.269029,-0.038210
22.636617,1.109934,-1.031813,-0.307833
22.666735,1.075211,-0.542027,-0.186906
22.706891,1.605485,-1.409806,-0.077101
22.737009,1.536951,-1.731737,-0.145985
22.767127,1.637114,-1.436159,-0.147080
22.807283,0.845943,-0.663238,-0.362324
22.837401,0.901358,-0.095515,-0.352322
22.867518,0.995174,0.001327,-0.114170
22.907675,0.940201,0.146479,-0.158195
22.937793,-0.015867,1.416462,-0.112059
22.967910,-0.900092,2.158767,-0.051792
23.008067,-2.288213,2.897343,-0.149451
23.038185,-2.355694,2.297849,0.148454
23.068302,-2.251415,1.205755,0.894589
23.108459,-0.948830,2.456573,1.392570
23.138576,-0.922763,1.913675,1.039859
23.168694,-2.053481,0.817615,1.001412
23.208851,-1.636193,0.466175,0.903481
23.238968,-1.928668,-0.382441,0.761392
23.269086,-1.253648,-0.465864,0.469401
23.299203,-0.232794,-0.878414,0.272951
23.339360,0.469969,-1.896422,-0.289186
23.369478,0.852318,-1.958529,-0.362359
23.399595,0.334251,-0.199100,0.068978
23.439751,-0.963747,1.208300,0.081131
23.469868,-0.428911,0.543744,0.333829
23.499986,0.429041,-0.054042,0.019662
23.540143,1.494355,-0.246408,0.834525
23.570260,0.019929,-0.509731,0.184082
23.600378,-0.407649,-0.835041,-0.157509
23.640535,1.599647,0.418237,-1.020872
23.670652,2.432430,-0.064291,-0.557180
23.700770,2.562595,-2.077642,-0.241604
23.740926,1.954049,-0.662443,-0.033332
23.771044,1.081464,-0.809461,-0.417075
23.801161,0.545307,-1.180030,-0.409397
23.841318,1.534393,-1.220921,-0.230311
23.871436,1.709415,-0.809889,-0.161847
23.901553,1.705313,-1.012554,-0.106333
23.941710,0.784860,-0.798104,-0.294437
23.971828,0.526021,-0.207649,-0.403472
24.001945,0.642947,0.262699,-0.198131
24.042102,0.591466,1.007156,-0.169412
24.072219,-0.160825,2.451604,-0.109750
24.102337,-1.556091,3.034221,0.084602
24.132455,-2.679031,2.739565,0.249953
24.172611,-2.374709,1.581547,0.664034
24.202729,-0.818978,2.613622,0.547652
24.232846,-0.356655,2.703196,0.657512
24.273003,-1.464803,1.474922,0.808060
24.303121,-1.968644,0.454877,0.647718
24.333238,-1.544846,-0.075627,0.427939
24.373395,-0.491090,-0.201635,0.366474
24.403513,0.218665,-0.550919,0.061945
24.433631,0.669332,-1.304319,-0.286854
24.473788,1.080196,-2.363025,-0.564330
24.503905,-0.425512,-0.777040,-0.059372
24.534023,-0.558747,0.874650,-0.080496
24.574180,-0.781682,0.232417,0.203503
24.604297,-0.563205,0.755545,-0.229133
24.634415,1.523078,0.790220,0.606725
24.674571,-0.109279,-1.217842,-0.028759
24.704689,-0.418155,-0.805498,-0.878966
24.734807,1.554339,-0.088581,-0.994298
24.774963,1.694316,-1.745338,-0.212817
24.805081,1.164207,-2.166245,0.076618
24.835198,1.290368,-1.219074,0.014749
24.875355,1.006570,-0.833422,-0.029418
24.905473,1.224978,-1.073587,0.059037
24.935590,1.186025,-1.626918,-0.154792
24.975747,1.082277,-1.096652,-0.276785
25.005865,0.850041,-1.007473,-0.101008
25.035982,0.029354,-0.778650,-0.173250
25.066100,0.013182,0.042359,-0.458141
25.106256,0.493250,0.087484,0.014664
25.136374,0.805722,-0.043170,0.121062
25.166491,0.327264,0.347735,0.003283
25.206648,-0.944088,2.070484,-0.110247
25.236766,-1.787783,2.954897,-0.032382
25.266883,-2.184437,2.105531,0.219760
25.307040,-1.145593,1.574180,0.560937
25.337158,-0.812060,2.539535,1.080746
25.367275,-1.052295,1.996318,0.890850
25.407432,-1.972613,0.591895,0.844715
25.437553,-1.599746,0.449690,0.761261
25.467670,-1.561114,-0.039538,0.549216
25.507827,-0.767175,-0.356977,0.195889
25.537944,-0.015753,-0.880641,-0.001822
25.568062,0.485968,-1.636800,-0.239925
25.608219,0.708199,-2.004648,-0.406359
25.638336,-0.660665,0.426845,-0.071327
25.668454,-0.971776,1.466496,0.321535
25.713596,-0.466564,-0.374335,0.038777
25.743713,0.060576,0.790133,0.063892
25.783870,2.328617,-0.168570,0.607011
25.813988,0.034259,-0.595064,0.234099
25.844105,0.263410,-0.680104,-0.974103
25.884262,1.638296,-0.344500,-0.705271
25.914379,2.023707,-1.485263,-0.132445
25.944497,2.117074,-1.543942,0.041901
25.974615,1.442163,-1.123210,-0.407228
26.014771,0.216448,-1.067087,-0.432398
26.044889,0.753807,-1.277440,-0.229197
26.075006,1.674228,-1.443966,0.011140
26.115163,1.252570,-0.939835,-0.162821
26.145281,0.678020,-1.016745,-0.260510
26.175398,0.505949,-0.923824,-0.251407
26.215555,0.796076,0.249206,-0.057234
26.245673,0.938779,0.236251,-0.065347
26.275790,1.181406,-0.110471,-0.407778
26.305908,0.852466,0.797779,-0.229292
26.336060,-0.374080,1.749683,0.226709
26.366177,-2.234353,2.553227,0.191467
26.406334,-3.852495,2.098825,0.291057
26.436448,-2.986710,1.242685,0.291890
26.466566,-1.612027,2.145509,0.445311
26.506723,-0.451567,2.947705,0.508826
26.536840,-1.614101,1.226863,0.623705
26.566958,-2.316231,0.200844,0.727931
26.607115,-1.330962,0.049134,0.563671
26.637232,-0.606010,-0.244741,0.238920
26.667350,-0.092148,-0.940013,0.067609
26.707507,0.628329,-1.603820,-0.027285
26.737624,0.589513,-1.576372,0.109653
26.767742,-0.911443,0.178067,0.133246
26.807898,-0.814514,0.273171,0.007412
26.838016,-0.526323,-0.085150,0.558233
26.868134,-0.746861,0.734149,0.350900
26.908290,1.136221,0.211007,0.134089
26.938408,1.349456,-0.684237,0.201137
26.968525,0.032457,-1.302123,-0.515940
27.008682,2.049252,-0.274658,-0.620028
27.038800,2.514077,-1.349839,-0.010889
27.068917,2.142274,-0.832604,0.108308
27.099035,1.766172,-0.939817,-0.623964
27.139192,0.416755,-1.680102,-0.442854
27.169309,0.813255,-1.588119,-0.089207
27.199427,1.314166,-0.949185,-0.035224
27.239583,1.485506,-0.852461,-0.319793
27.269701,1.701585,-1.392787,-0.315748
27.299819,1.195739,-1.093404,-0.315198
27.339975,0.970473,-0.151645,-0.446063
27.370093,1.027965,0.634803,-0.571621
27.400211,1.183931,0.727174,-0.261549
27.440367,0.577551,1.092540,0.300430
27.470485,-0.437296,1.750867,0.177516
27.500602,-1.653285,2.472906,0.252133
27.540759,-2.403834,2.809184,0.603878
27.570877,-2.367825,1.795048,1.001243
27.600994,-1.309904,2.485394,1.295664
27.641151,-0.318905,2.999673,1.217623
27.671269,-1.462826,1.166023,1.298890
27.701386,-2.377503,0.069675,1.086598
27.741543,-1.463824,-0.296787,0.362625
27.771661,-0.582027,-0.778470,0.449010
27.801778,-0.045822,-1.351407,0.277423
27.841935,0.780358,-2.003973,-0.235667
27.872052,1.225249,-2.210504,-0.130937
27.902170,-0.995756,-0.273047,0.392811
27.942327,-0.931936,1.000882,-0.027015
27.972444,0.153697,-0.069930,0.339187
28.002562,-0.843220,-0.492221,0.012858
28.032680,0.205177,0.406729,0.223450
28.072836,0.013503,-0.733039,0.016263
28.102954,-0.558111,-1.373673,-0.343269
28.133071,1.223348,-0.643186,-0.599863
28.173228,1.920853,-1.626969,0.077967
28.203346,1.560047,-1.860063,0.048854
28.233463,1.447605,-0.664580,-0.506821
28.273620,0.901661,-0.962360,-0.346848
28.303738,1.594143,-1.544967,-0.155665
28.333855,1.893444,-1.766930,-0.104410
28.374012,1.289143,-1.190270,-0.244471
28.404130,1.038430,-1.141368,0.019953
28.434247,0.865507,0.243515,-0.258070
28.474404,0.872072,0.602062,-0.145900
28.504522,1.046653,0.121146,-0.241151
28.534639,0.552067,1.196951,-0.041425
28.574796,-1.205296,2.100659,0.243965
28.604913,-2.317136,3.091861,0.258346
28.635031,-2.447727,2.799907,0.210518
28.675188,-2.207709,1.416657,0.647957
28.705305,-0.678708,2.723880,0.897151
28.735423,-0.007365,2.681692,0.696652
28.775580,-1.440465,0.890527,0.937442
28.805697,-2.335101,0.240623,0.900106
28.835815,-1.798079,0.042699,0.712833
28.865933,-1.212542,-0.398862,0.466386
28.906089,-0.075557,-0.916529,0.084857
28.936207,0.525149,-1.428669,-0.110694
28.966324,0.976110,-1.832755,-0.275467
29.006481,-0.302081,-1.054807,0.078287
29.036599,-0.806125,0.904362,0.223882
29.066716,-1.339473,0.728250,0.506863
29.106873,-0.096436,0.122004,0.162485
29.136991,0.489346,0.287553,0.172729
29.167108,1.352842,-0.703718,-0.086603
29.207265,-0.052914,-1.346292,-0.443561
29.237383,0.905790,-0.958991,-0.869011
29.267500,1.462109,-1.006459,-0.449508
29.307657,2.013954,-2.010830,-0.021069
29.337775,1.692916,-1.031515,-0.190635
29.367892,1.179552,-0.667164,-0.298949
29.408049,1.157434,-1.300093,-0.213095
29.438167,1.455946,-1.420755,-0.202504
29.468284,1.068624,-1.400848,-0.105138
29.508441,1.057662,-1.780201,-0.042987
29.538559,0.593949,0.068947,-0.146868
29.568676,0.578710,0.517133,-0.131942
29.608833,1.098885,-0.077184,-0.394287
29.638951,1.324834,0.279639,-0.138356
29.669068,0.141851,1.642218,0.109679
29.699186,-1.327854,2.356076,0.081350
29.739343,-3.670987,2.841813,0.140085
29.769460,-3.767512,1.890180,0.410129
29.799578,-2.436572,1.486974,0.508285
29.839734,-0.114638,3.332560,0.823152
29.869852,-0.625414,2.479402,0.849874
29.899970,-1.726448,0.929713,1.181170
29.940126,-2.270903,0.015656,0.788079
29.970244,-1.271002,-0.140888,0.376077
30.000362,-0.241735,-0.195904,0.281566
30.040518,0.347375,-1.174836,-0.178435
30.070636,1.074530,-2.142891,-0.428545
30.100754,1.289922,-2.382792,-0.258070
30.140910,-0.475046,1.289825,0.142567
30.171028,-0.651773,1.638286,0.371051
30.201146,-0.155709,-0.356587,0.353880
30.241302,0.394855,0.703760,0.398634
30.271420,1.701742,-0.388880,0.138278
30.301537,-0.651743,-1.162801,-0.045191
30.341694,0.734725,-0.963287,-0.815625
30.371812,1.612451,-0.705705,-0.296127
30.401929,1.675043,-2.013736,-0.205327
30.432047,1.829722,-2.564437,-0.335386
30.472207,1.414480,-0.578077,-0.313634
30.502324,1.374645,-0.519818,-0.193577
30.532442,1.219177,-1.340785,-0.563566
30.572599,1.553557,-1.761679,-0.417128
30.602716,1.722170,-1.524163,-0.136131
30.632834,1.023074,-0.256933,-0.297366
30.672991,0.727857,0.160264,-0.203711
30.703108,0.945032,-0.427007,-0.344255
30.733226,1.565188,0.284133,-0.180196
30.773383,-0.313220,1.854968,-0.061746
30.803500,-2.148136,2.575261,0.042378
30.833618,-3.120894,3.463145,0.051741
30.882525,-2.371611,1.642770,0.517969
30.912642,-0.728434,2.732111,0.979462
30.942760,0.427889,3.233784,0.974437
30.982917,-0.782070,1.423794,1.073220
31.013034,-1.744173,0.494009,1.075644
31.043152,-1.885249,-0.120237,0.794970
31.083309,-0.780031,-0.247924,0.559789
31.113426,-0.017776,-0.790588,0.260068
31.143544,0.448414,-1.587894,-0.302085
31.183701,1.187316,-2.296913,-0.606608
31.213818,0.144886,-0.961805,0.008180
31.243936,-1.180107,1.402160,0.392623
31.274054,-0.746872,0.988270,0.629591
31.314210,-0.177427,0.052509,0.105015
31.344328,0.714643,0.174135,0.512763
31.384485,-1.451227,-1.662628,0.169793
31.414602,-0.468094,-1.615391,-0.627724
31.444718,1.068902,-0.402933,-0.917545
31.474865,1.956015,-1.333028,-0.274111
31.504982,2.279382,-2.194026,0.067621
31.535100,1.864891,-1.213984,-0.175297
31.575257,1.129058,-0.957801,-0.342292
31.605374,1.114991,-1.172269,-0.171836
31.635492,1.157870,-1.464627,-0.171822
31.675649,1.486433,-1.742378,-0.212797
31.705766,1.070494,-1.362003,-0.270731
31.735884,0.536429,0.076693,-0.228905
31.776041,0.958179,-0.245158,-0.225344
31.806158,1.295659,0.320783,-0.237470
31.836276,1.204937,1.195433,0.054687
31.876433,-0.628792,1.835084,0.101862
31.906550,-2.036490,2.662193,0.421724
31.936668,-2.163142,3.135433,0.526279
31.976825,-1.931233,1.802228,1.147925
32.006942,-1.717484,2.278113,1.510185
32.037060,-0.510629,2.949167,1.040797
32.067178,-0.945585,2.084296,0.856175
32.107334,-2.009039,0.717192,0.713727
32.137452,-1.995325,0.195029,0.507606
32.167570,-1.096165,0.103280,0.398486
32.207726,0.126102,-0.682839,0.210508
32.237844,0.252674,-1.673326,-0.110290
32.267962,0.896486,-2.063001,-0.439438
32.308118,-0.224425,-1.202429,0.036484
32.338236,-0.889610,0.929386,0.060210
32.368354,-0.596427,0.962326,0.507478
32.408511,-0.729851,-0.483664,-0.160478
32.438628,0.087003,0.172259,0.046362
32.468746,1.849323,-0.839882,0.102015
32.508902,-0.110308,-0.793548,-0.221882
32.539019,0.516114,-0.813678,-0.769025
32.569137,1.495306,-0.813079,-0.415293
32.609294,2.228346,-1.941654,-0.023854
32.639411,1.878268,-1.458296,-0.186451
32.669529,1.201707,-0.901816,-0.570171
32.709687,0.957055,-0.864924,-0.330252
32.739804,1.536275,-1.451403,-0.189015
32.769922,1.624085,-1.465471,-0.233662
32.810079,1.556615,-1.219705,-0.018070
32.840196,0.824186,-0.349567,-0.327358
32.870314,0.710551,0.641437,-0.322777
32.900431,0.685331,-0.016774,-0.120486
32.940587,0.696055,-0.382002,-0.369393
32.970706,0.069044,0.821014,-0.113735
33.000823,-0.574953,1.934878,-0.020250
33.040979,-2.119356,3.256196,0.069735
33.071097,-2.234473,2.723343,0.383377
33.101214,-1.806339,1.538505,0.921043
33.141371,-1.267086,2.544070,1.411915
33.171489,-1.026410,1.959272,1.017036
33.201607,-1.894826,0.996312,1.037213
33.241764,-2.444080,0.159640,1.049009
33.271882,-2.342845,-0.292601,0.733052
33.301999,-1.329582,-0.200868,0.465478
33.342156,0.074937,-0.962088,0.089486
33.372274,0.760703,-1.702760,-0.284962
33.402392,1.202319,-2.056882,-0.351378
33.442547,0.180168,-0.334206,-0.138986
33.472665,-1.214309,1.209270,0.077694
33.502783,-0.871020,0.369244,0.635157
33.542939,0.240543,-0.126496,0.205960
33.573057,1.119291,0.133913,0.627015
33.603175,0.398107,-0.987118,0.152514
33.643331,-0.278164,-1.441169,-0.807337
33.673449,1.377190,-0.437947,-0.949829
33.703567,1.597557,-0.866746,-0.158792
33.733684,2.563667,-2.537003,0.236365
33.773841,1.399649,-0.473573,-0.438218
33.803959,0.981473,-0.581387,-0.644593
33.834076,1.538907,-1.247695,-0.328593
33.874233,1.859224,-1.115009,-0.219090
33.904351,1.331030,-1.560706,-0.091006
33.934468,0.688535,-1.341861,-0.218161
33.974625,0.508408,-0.010131,-0.452499
34.004743,0.792696,-0.175343,-0.085273
34.034860,0.938534,-0.095667,-0.075432
34.075017,0.648709,1.075768,-0.019872
34.105135,-0.410180,2.054736,0.077004
34.135252,-1.605013,2.775671,0.324024
34.175409,-2.801664,2.750975,0.771465
34.205527,-2.451240,1.625690,0.786804
34.235644,-1.872916,2.169667,0.647242
34.275801,-0.478236,3.032234,0.796449
34.305919,-1.103299,1.672912,1.242648
34.336037,-2.091230,0.596366,1.244734
34.376193,-2.107976,-0.278220,0.694068
34.406311,-1.003580,-0.343144,0.491579
34.436429,0.023771,-0.681693,0.204914
34.476585,0.782262,-1.773862,-0.267008
34.506703,0.949149,-2.180253,-0.506286
34.536821,-0.515697,-1.160225,-0.060810
34.566938,-0.618132,0.825702,0.219245
34.607095,-1.162294,0.228345,0.498656
34.637213,0.296229,-0.523515,0.135032
34.667330,0.467605,0.224143,0.401725
34.707487,0.371031,-0.382229,0.447219
34.737605,-0.508494,-1.306476,0.175736
34.767722,0.037934,-0.837884,-0.683629
34.807879,2.116143,-0.495090,-0.516497
34.837997,1.846972,-2.076476,-0.223021
34.883144,1.758002,-0.746014,-0.171467
34.913261,0.820368,-0.608185,-0.227995
34.943379,0.822056,-1.122373,-0.211877
34.983536,1.911094,-1.314992,-0.202711
35.013653,1.908620,-1.126318,-0.154978
35.043771,1.833866,-1.577751,-0.016749
35.083928,0.514659,-0.256261,-0.285902
35.114046,0.525292,0.434867,-0.243490
35.144163,1.112675,0.169856,-0.038776
35.184320,0.581375,1.270268,0.037972
35.214438,0.004201,2.205224,-0.002411
35.244555,-1.315569,2.376590,0.162052
35.274673,-3.102255,3.065440,0.392234
35.314830,-3.289553,1.213563,0.542247
35.344947,-1.977495,2.232444,0.760131
35.375065,-0.322022,3.120170,0.841398
35.415222,-0.744864,1.667170,0.839101
35.445339,-2.013538,0.477816,0.960546
35.475461,-2.102173,-0.088838,0.661020
35.515618,-1.017672,-0.209920,0.415877
35.545735,-0.045820,-0.514014,0.189430
35.575853,0.569631,-1.117679,-0.215004
35.605971,0.932360,-2.045054,-0.449101
35.646127,-0.368220,-1.568431,0.058587
35.676245,-0.526265,0.689444,0.090454
35.706363,-0.705190,0.907003,0.607423
35.746519,-0.020259,-0.336720,-0.100497
35.776637,0.723734,0.674578,0.016672
35.806755,1.923400,-0.253102,0.487910
35.846911,0.217904,-1.042641,-0.347747
35.877029,0.773743,-0.692633,-1.207627
35.907147,2.538450,-0.473395,-0.815123
35.947304,2.239214,-1.826736,-0.147064
35.977421,1.490876,-1.186102,-0.403863
36.007539,1.107248,-1.182969,-0.667992
36.047696,1.050402,-1.173547,-0.312851
36.077813,1.758770,-1.352126,-0.314477
36.107931,1.383678,-1.593006,-0.390387
36.148088,0.967211,-2.066947,-0.163668
36.178205,0.806216,0.590144,-0.264795
36.208323,0.720705,0.633194,-0.112655
36.248480,0.623077,-0.812582,-0.318231
36.278597,0.854629,1.204580,-0.158077
36.308715,0.181490,1.665200,0.055720
36.348872,-1.890273,2.692942,0.290182
36.378990,-2.837735,3.172920,0.414361
36.409107,-2.893084,1.685234,0.606600
36.449265,-1.579619,2.406730,0.743272
36.479383,-0.316033,3.238692,0.567066
36.509500,-0.895413,2.306865,0.761367
36.549657,-1.826519,0.675341,1.236360
36.579775,-1.655416,-0.011761,0.593294
36.609892,-1.166295,-0.197293,0.276617
36.640010,-0.425626,-0.496853,0.171831
36.680167,0.078613,-1.770085,-0.250590
36.710284,0.524554,-2.869757,-0.562564
36.740402,-1.607429,-1.261378,0.087448
36.780559,-0.788000,1.384163,0.274296
36.810676,-0.538717,0.388102,0.119848
36.840794,-0.380839,-0.304633,-0.416338
36.880951,1.533221,-0.603780,0.273267
36.911069,0.534559,0.249778,0.530920
36.941186,0.314838,-0.674590,-0.425316
36.981343,1.311513,-0.841245,-0.331051
37.011461,2.126899,-1.930140,-0.195203
37.041578,2.108954,-1.711506,-0.105641
37.081735,1.346554,-1.475606,-0.480839
37.111853,0.834354,-1.434077,-0.456884
37.141970,1.217541,-1.511130,-0.360488
37.182127,1.707804,-1.568560,-0.237933
37.212245,1.526984,-1.181301,-0.158026
37.242362,1.002610,-1.030514,-0.165244
37.282519,0.708466,0.079292,-0.406785
37.312637,0.886709,0.162008,-0.155926
37.342755,1.516303,0.069017,0.030105
37.382911,0.300998,1.630196,-0.048472
37.413029,-0.711623,2.150763,-0.009739
37.443147,-1.787570,3.290677,0.324092
37.473264,-2.527759,2.938630,0.541731
37.513421,-2.477976,1.703117,0.910203
37.543539,-1.169016,2.737024,1.101218
37.573656,-0.377391,2.612440,1.154523
37.613813,-1.751795,1.069252,1.438126
37.643931,-2.484086,0.260896,0.855680
37.674048,-1.635112,-0.091235,0.543556
37.714205,-0.561498,-0.354124,0.350053
37.744323,0.164298,-0.896479,-0.021809
37.774441,0.748613,-1.790624,-0.340911
37.814597,1.207572,-2.859290,-0.489541
37.844715,-0.710859,-0.290541,-0.016816
37.874833,-0.938260,1.264600,0.575399
37.914989,-0.104085,0.250010,0.414648
37.945107,0.292645,0.505408,-0.200917
37.975225,1.415207,-0.690851,0.417247
38.015382,-0.475687,-0.726572,0.226468
38.045499,0.413058,-0.556720,-0.874711
38.075617,2.303434,-0.884546,-0.752049
38.115774,3.018069,-1.546891,-0.040823
38.145891,2.387211,-0.755613,-0.331409
38.176009,1.054222,-1.134609,-0.572893
38.206127,0.604521,-1.206041,-0.530767
38.246283,1.777043,-1.342842,-0.498890
38.276401,1.175955,-1.162840,-0.553268
38.306519,0.834521,-1.293735,-0.343034
38.346676,0.676188,-0.522343,-0.374376
38.376793,0.894781,-0.171772,-0.603752
38.406911,0.636498,-0.062742,-0.319404
38.447068,0.735756,0.571395,-0.056388
38.477185,0.068068,1.507804,-0.071245
38.507303,-1.561291,2.453508,0.299042
38.547460,-2.955963,2.964459,0.446402
38.577577,-2.796018,1.781360,0.712871
38.607695,-1.916071,1.904066,0.908378
38.647852,-0.121277,3.147496,0.919292
38.677969,-1.007789,1.838674,1.281010
38.708087,-2.130212,0.859437,1.362215
38.748244,-2.194923,-0.033026,0.560665
38.778362,-1.304307,-0.050730,0.439519
38.808479,-0.263346,-0.353417,0.411376
38.848636,0.370474,-1.477203,-0.249669
38.878754,1.086601,-2.391156,-0.631881
38.908871,0.325807,-2.350515,-0.201548
38.949028,-0.905980,1.559022,0.430241
38.979146,-1.194107,0.810529,0.573415
39.009263,0.536484,-0.745771,-0.074059
39.049420,1.077686,0.334118,0.561279
39.079538,1.284406,-0.484760,0.387393
39.109656,-0.828803,-1.279953,-0.187505
39.139773,0.591872,-0.870772,-1.289111
39.179930,1.988451,-0.911098,-0.336467
39.210048,2.486055,-2.391740,-0.169019
39.240165,2.422051,-1.627041,-0.344291
39.280322,0.245822,-1.128078,-0.660980
39.310440,0.209138,-1.282122,-0.515124
39.340557,0.869437,-1.417871,-0.389227
39.380714,1.588848,-1.754696,-0.355722
39.410832,1.854413,-1.409182,-0.196032
39.440949,0.596305,0.668861,-0.275183
39.481107,0.898906,-0.128905,-0.127584
39.511225,1.395793,-0.028765,-0.483762
39.541343,0.594979,1.711644,-0.053977
39.581499,-1.195869,1.989566,0.394211
39.611617,-2.659410,3.499247,0.464478
39.641735,-3.007678,2.675895,0.490399
39.681892,-2.264099,1.891553,0.753264
39.712009,-0.615528,3.137052,1.028935
39.742127,-0.256796,2.998387,1.081437
39.782284,-1.758866,0.998240,1.136635
39.812401,-2.113565,0.212278,0.901036
39.842519,-1.451022,-0.031603,0.739293
39.882676,-0.413688,-0.276643,0.572339
39.912793,0.073190,-0.816919,0.184008
39.942911,0.907039,-1.834090,-0.384864
39.973029,1.364711,-2.682397,-0.589210
40.013186,-0.428419,0.235599,-0.022319
40.043303,-1.157874,0.953147,0.208135
40.073421,-0.451461,0.148649,0.548328
40.113578,0.705660,0.046511,0.123442
40.143695,1.792149,-1.121658,0.067556
40.173813,-1.325892,0.630411,0.407548
40.213970,0.123501,-2.075145,-0.770670
40.244087,0.918404,-0.607741,-0.874419
40.274205,1.694940,-0.621226,-0.389754
40.314362,2.627281,-2.946006,-0.338076
40.344479,1.700061,-0.947683,-0.338995
40.374597,0.519880,-0.696416,-0.457052
40.414754,1.029873,-1.242442,-0.422851
40.444872,1.408708,-1.816369,-0.302374
40.474989,1.880339,-2.616330,0.010865
40.515146,0.848649,0.459851,-0.395859
40.545264,0.918878,0.867516,-0.162058
40.575381,0.930530,-0.307954,-0.199113
40.615538,1.081422,1.339928,-0.048740
40.645656,0.007301,1.656989,0.229028
40.675773,-1.780359,2.823084,0.427324
40.715930,-2.860248,2.788822,0.411780
40.746048,-3.306171,1.470092,0.718209
40.776166,-2.089154,2.465986,1.063383
40.816322,-0.160666,3.113366,0.685471
40.846440,-1.192939,1.752725,0.902309
40.876558,-1.621390,0.953735,1.058132
40.906675,-1.521537,0.362156,0.760418
40.946832,-0.695540,-0.060466,0.456511
40.976950,-0.073442,-0.677440,0.143360
41.007067,0.440911,-1.561509,-0.391945
41.047224,0.730166,-2.787249,-0.502767
41.077342,-0.701535,-0.596581,-0.104900
41.107460,-1.034520,1.229581,0.255754
41.147616,-0.185514,-0.342972,0.587821
41.177734,0.388397,-0.197695,0.027731
41.207852,1.362805,-0.050606,0.284660
41.248009,-0.546012,-0.512992,0.066182
41.278126,-0.496167,-1.261715,-0.812204
41.308244,1.623369,-0.287005,-0.922431
41.348401,2.701314,-1.267654,-0.370521
41.378518,2.748698,-2.266313,-0.294200
41.408636,1.825846,-1.203162,-0.484510
41.448793,0.337397,-1.190351,-0.350902
41.478912,0.960140,-1.613182,-0.153591
41.509030,1.385429,-1.817045,-0.199980
41.549187,1.698724,-2.347975,-0.370108
41.579305,0.710141,0.031329,-0.483457
41.609422,0.615088,0.752328,-0.318290
41.639540,0.681580,-0.506898,-0.296341
41.679697,1.139277,1.422643,-0.222157
41.709814,0.157264,1.774976,0.053133
41.739932,-1.196272,2.297212,0.458543
41.780089,-2.695489,3.313864,0.636121
41.810207,-3.138719,1.775147,0.773703
41.840324,-1.985056,1.910976,0.870698
41.880481,0.224387,3.083969,1.263812
41.910599,-0.959958,1.933031,1.365919
41.940716,-2.195568,0.830604,1.353306
41.980873,-2.014903,-0.069546,0.996428
42.010991,-1.296304,-0.379657,0.821514
42.041108,-0.698747,-0.820535,0.587296
42.081265,0.150045,-1.582261,-0.004877
42.111383,0.874979,-2.208443,-0.308629
42.141501,0.850745,-1.990736,-0.248155
42.181657,-0.613389,1.058525,-0.116786
42.211775,-1.434887,0.528345,0.392271
42.241893,-0.005290,-0.599356,0.411550
42.282045,0.803832,0.064508,0.245180
42.312162,1.640811,-0.637072,0.171807
42.342280,-0.591026,-0.617833,-0.073499
42.382437,0.099762,-1.022198,-0.991365
42.412554,1.806847,-0.369768,-0.714016
42.442672,2.428288,-1.672004,-0.478754
42.482826,2.620434,-1.023675,-0.299197
42.512944,1.456317,-0.555124,-0.552299
42.543061,0.376559,-1.115741,-0.359575
42.583218,1.559027,-1.620164,-0.220473
42.613336,1.762305,-1.412431,-0.115171
42.643453,1.765412,-1.291571,-0.125411
42.683610,0.391550,-0.576224,-0.273527
42.713728,0.498620,-0.048152,-0.226393
42.743846,0.887994,-0.048558,-0.112310
42.784002,0.938716,0.840000,-0.087147
42.814120,0.009787,1.616359,-0.094407
42.844238,-1.628801,2.552079,0.234791
42.874355,-2.285728,3.268916,0.506354
42.904502,-2.506316,2.459744,0.930606
42.934620,-2.239022,1.769696,1.096351
42.974777,-0.819135,2.934903,1.144852
43.004895,-0.503941,2.345456,1.071191
43.035012,-1.430063,1.291715,1.327251
43.075169,-2.316229,-0.046998,0.864759
43.105287,-1.557775,-0.144024,0.574583
43.135404,-0.645404,-0.424883,0.433004
43.175561,0.179910,-1.276631,-0.200419
43.205679,1.070571,-2.055442,-0.802814
43.235797,1.047752,-2.517793,-0.548090
43.275953,-0.450704,1.108834,0.051978
43.306071,-1.208575,1.343849,0.409024
43.336189,0.564984,-0.310288,0.043404
43.376346,0.859309,0.456846,0.301306
43.406463,1.541273,-0.726978,0.439769
43.436581,-0.685245,-1.087555,-0.301799
43.476738,1.264566,-0.805299,-1.190102
43.506855,1.893209,-1.116681,-0.325934
43.536973,1.907733,-1.679740,-0.141613
43.567091,1.837761,-1.090170,-0.660072
43.607248,0.685616,-1.271165,-0.544794
43.637365,0.519601,-1.169768,-0.306003
43.667483,1.340860,-1.242662,-0.463718
43.707640,1.537452,-1.127964,-0.422825
43.737757,1.428283,-1.725523,-0.351932
43.767875,0.575083,-1.087734,-0.345090
43.808032,0.414179,-0.244056,-0.292117
43.838150,0.643051,-0.359810,-0.341039
43.868267,0.981946,0.164779,-0.151437
43.908424,0.458768,1.680894,0.150875
43.938542,-0.912821,2.390069,0.561631
43.968660,-2.274951,3.244609,0.973225
44.008816,-2.615754,2.103817,1.018018
44.038934,-2.021676,1.803805,0.835359
44.069052,-1.184999,2.908226,0.963944
44.109209,-0.451458,2.180260,1.311790
44.139326,-1.989517,0.742456,1.197942
44.169444,-3.100098,-0.216446,0.908098
44.209601,-1.657724,-0.027448,0.735587
44.239718,-0.570346,-0.279777,0.491223
44.269836,0.230130,-0.926776,-0.061473
44.309993,1.421744,-2.203989,-0.620282
44.340111,0.846391,-2.154126,-0.343954
44.370228,-0.574466,0.853975,0.177203
44.400346,-0.541945,0.791810,0.226670
44.440503,0.121118,-0.486290,0.146024
44.470620,0.261739,0.419987,-0.045989
44.500738,1.931607,-0.290770,0.373578
44.540895,-0.583607,-0.902991,-0.174790
44.571013,0.192431,-1.135153,-1.324632
44.601130,1.370405,-0.697551,-0.966783
44.641287,2.293408,-2.154817,-0.230921
44.671405,2.223823,-0.925455,-0.309505
44.701523,1.493309,-1.204958,-0.654859
44.741679,0.305824,-1.526316,-0.393666
44.771797,1.105763,-1.520631,-0.203501
44.801915,1.275190,-1.675369,-0.252074
44.842072,1.278847,-1.920420,-0.308901
44.872189,0.652359,-0.114264,-0.297129
44.902307,0.542907,0.233395,0.272216
44.942464,0.821340,-0.144617,0.196178
44.972582,1.095981,0.953010,-0.093577
45.002699,0.293322,1.206822,0.014849
45.042856,-1.259022,2.447403,0.403329
45.072974,-3.112984,3.625268,0.646926
45.103091,-3.315998,1.876550,0.661017
45.143248,-3.054734,1.719266,0.809512
45.173366,-0.171779,3.455088,0.848375
45.203484,0.043454,2.799527,0.748366
45.233601,-1.722845,1.008935,0.928348
45.273758,-2.121925,-0.030888,0.855060
45.303876,-1.366791,-0.242596,0.656008
45.333994,-0.552829,-0.561324,0.274397
45.374150,0.421691,-1.270562,-0.247271
45.404268,1.025797,-1.986700,-0.599118
45.434386,0.765767,-1.851832,-0.226109
45.474547,-0.505664,1.514168,0.223001
45.504664,-0.441566,0.849246,0.288282
45.534782,0.465461,-0.725296,0.044644
45.574939,0.994797,0.091745,0.159372
45.605056,2.000519,-1.541333,-0.203042
45.635174,-0.598020,-0.219724,-0.113640
45.675331,0.224797,-1.256470,-0.945884
45.705449,1.245137,-0.597232,-0.604512
45.735566,1.548766,-1.634444,-0.310304
45.775723,2.236867,-2.482698,-0.287360
45.805841,1.118939,-0.572485,-0.444330
45.835959,0.584229,-0.871073,-0.317625
45.876115,1.242993,-1.781770,-0.307457
45.906233,0.929838,-1.888912,-0.400277
45.936351,1.133163,-1.460418,-0.290346
45.976508,0.364932,0.451350,-0.385546
46.006625,0.387657,-0.047842,-0.130250
46.036743,0.735699,-0.293853,-0.209508
46.066861,1.020431,0.725002,-0.059883
46.107018,-0.547442,1.894928,0.218557
46.137135,-1.786639,3.038836,0.480681
46.167253,-2.623694,3.743150,0.748304
46.207410,-2.200002,1.743911,0.823715
46.237528,-0.972473,2.806032,1.100879
46.278910,0.279195,2.894594,1.106533
46.309028,-1.349083,1.148071,1.229715
46.349184,-2.118450,0.041521,0.899172
46.379302,-1.609537,-0.310656,0.567472
46.409420,-0.566697,-0.247672,0.257034
46.449577,0.451667,-0.864734,-0.363654
46.479690,1.029244,-1.805752,-0.763620
46.509808,1.133778,-2.586549,-0.722548
46.549965,-0.236658,1.193412,0.017381
46.580083,-2.075198,1.227079,0.813427
46.610200,-0.215708,-0.253358,0.430211
46.650357,1.534630,-0.316971,0.107279
46.680475,1.207422,-1.278306,0.028460
46.710593,-0.590896,0.431196,-0.112978
46.750749,0.643448,-1.253602,-1.347974
46.780867,1.094397,-0.872122,-0.741241
46.810985,1.318060,-2.286214,-0.133032
46.851142,1.857508,-1.540358,-0.281872
46.871220,1.643476,-1.088853,-0.518420
46.902627,0.413680,-1.091731,-0.500017
46.932745,0.618888,-1.275573,-0.379552
46.972902,1.733876,-1.667976,-0.408901
47.003019,1.418714,-1.755626,-0.408595
47.033137,0.713065,-0.864366,-0.499536
47.073294,0.600688,0.184342,-0.284963
47.103412,0.844496,-0.101557,-0.174193
47.133529,0.991545,0.392570,-0.182884
47.173686,-0.217291,1.807793,0.094247
47.203804,-1.493706,2.905077,0.476082
47.233922,-1.660445,3.470582,0.522393
47.274078,-2.148771,1.564842,0.932293
47.304196,-1.806447,2.200381,1.371980
47.334314,-0.241553,2.832336,1.284879
47.374471,-0.829777,1.656582,1.239275
47.404588,-1.839025,0.844775,0.951925
47.434706,-2.248567,0.055642,0.747499
47.474864,-1.004085,0.075522,0.510764
47.504982,-0.184370,-0.502192,0.244564
47.535099,0.316872,-1.501698,-0.366151
47.575256,0.692495,-2.674122,-0.820863
47.605374,-0.299230,-1.605845,-0.326238
47.635492,-1.707736,1.535421,0.470250
47.675649,0.159758,0.334607,0.589682
47.705766,1.422014,-0.305463,0.048148
47.735884,1.120152,-0.718834,0.168581
47.766002,-1.075350,-0.213251,0.115024
47.806159,0.569869,-1.172413,-0.831197
47.836276,1.050625,-0.867638,-0.596653
47.866394,1.237203,-1.843803,-0.120656
47.906551,1.864557,-1.894990,-0.032943
47.936669,1.382472,-1.186395,-0.387663
47.966786,0.807595,-1.225331,-0.478987
48.006943,1.004972,-1.880325,-0.482481
48.037061,1.436190,-1.605792,-0.465182
48.067178,1.224378,-1.320267,-0.247493
48.107335,0.934653,-0.175076,-0.405369
48.137453,0.787362,-0.046603,-0.441864
48.167571,0.557420,0.031421,-0.158453
48.207728,0.591477,1.183454,0.204221
48.237845,-0.467278,1.592598,0.153173
48.267963,-2.209226,3.180559,0.072635
48.308120,-2.450731,2.798997,0.477375
48.338238,-1.797585,1.739484,1.003639
48.368355,-0.947143,2.666848,1.231524
48.408512,-0.183151,2.676483,0.902133
48.438630,-1.318797,1.511518,1.350644
48.468747,-1.437265,0.823229,1.072688
48.498864,-1.647770,0.202082,0.505955
48.539021,-0.756923,0.131559,0.370122
48.569139,0.238621,-0.287286,0.182337
48.599257,0.729159,-1.319818,-0.388614
48.639414,1.147472,-2.227648,-0.959251
48.669531,0.023517,-1.273248,-0.339118
48.699649,-1.220683,1.031512,0.152260
48.739806,-0.711234,0.329151,0.617747
48.769924,0.012387,0.548839,0.235178
48.800041,0.679038,0.601477,0.427254
48.840198,-1.106113,-1.292784,0.009217
48.870316,-0.933326,-0.753756,-1.028562
48.900434,1.256186,-0.834546,-0.854340
48.940591,1.436788,-2.501840,0.152420
48.970708,2.311872,-1.653432,0.201224
49.000826,1.868731,-0.717729,-0.316850
49.040983,0.793001,-1.875566,-0.682198
49.071101,1.066515,-2.028068,-0.461638
49.101218,1.794993,-1.425533,-0.367895
49.141375,1.612547,-1.211107,-0.523711
49.171493,1.395959,-1.332782,-0.551907
49.201611,0.953666,-0.142667,-0.385705
49.241768,1.196598,0.200601,-0.168090
49.271885,1.163597,0.537713,-0.226192
49.302003,0.195865,1.700962,-0.004258
49.342160,-1.486006,2.541072,0.503193
49.372278,-1.575458,3.556634,0.332618
49.402395,-2.224818,1.960505,0.481359
49.432513,-1.942244,1.685796,1.135252
49.472669,-0.091449,2.733217,1.221742
49.502787,-0.308720,2.060540,0.887668
49.532904,-1.527571,1.156620,0.966609
49.573061,-1.810624,0.457614,0.968529
49.603179,-1.530137,0.127715,0.660323
49.633297,-0.813517,-0.226719,0.339004
49.673454,0.132491,-1.062897,-0.066587
49.703571,0.396364,-1.682621,-0.520539
49.733689,0.799267,-1.737856,-0.394846
49.773846,-0.030848,0.814056,0.054228
49.803964,-2.193894,0.854469,0.883739
49.834081,0.457102,-0.017362,0.596695
49.874238,1.298010,-0.205005,0.148718
49.904356,0.565201,-1.181038,-0.053224
49.934474,-1.205820,-0.662950,-0.283031
49.974630,0.067512,-1.431727,-1.144330
50.004748,1.066349,-1.067082,-0.518150
50.034866,1.638500,-2.064770,-0.206899
50.075023,1.167814,-1.512986,-0.581118
50.105141,0.599142,-1.189538,-0.715328
50.135258,0.242188,-0.872557,-0.403305
50.175415,1.624457,-1.599901,-0.480413
50.205533,1.842361,-1.435164,-0.374805
50.235651,1.427040,-1.290850,-0.246591
50.265768,0.806004,-0.516273,-0.366164
50.305925,0.834183,0.015878,-0.311189
50.336043,0.876265,-0.039598,-0.162076
50.366161,1.096457,0.454084,-0.114763
50.406318,-0.046479,1.286361,0.103912
50.436435,-0.858302,2.765414,0.347807
50.466553,-2.211467,3.534592,0.407097
50.506710,-2.166901,2.249361,0.652813
50.536828,-0.582297,2.219552,1.170539
50.566945,0.181602,2.805625,1.472294
50.607102,-0.443735,1.625377,1.650033
50.637220,-1.653831,0.789741,1.676002
50.667338,-1.897124,0.294694,0.931895
50.707495,-1.465241,-0.218058,0.678758
50.737612,-0.483077,-0.443351,0.476383
50.767730,-0.067626,-1.154215,-0.020620
50.807887,0.385648,-1.821152,-0.754885
50.838005,0.323685,-2.019178,-0.473181
50.868122,-0.191679,-0.057737,-0.069029
50.908279,-1.945269,1.217647,0.777880
50.938397,0.525258,-0.186714,0.571037
50.968515,1.280550,-0.508581,0.145096
51.008672,0.804825,-0.725551,0.292263
51.038789,-1.720715,-0.874565,0.003265
51.068907,-0.543573,-1.265539,-0.724443
51.099025,1.513961,-0.428938,-0.924258
51.139182,1.797926,-1.529327,-0.424712
51.169299,2.778925,-2.445566,-0.452889
51.199417,1.962583,-0.713033,-0.367181
51.239574,0.501525,-1.104363,-0.481390
51.269692,1.007174,-1.455070,-0.491469
51.299809,1.571814,-1.642380,-0.428422
51.339966,0.999556,-1.575792,-0.267788
51.370084,0.458446,-0.880982,-0.461263
51.400202,0.493766,-0.278414,-0.507647
51.440359,0.866988,-0.049556,-0.121995
51.470477,1.283813,0.554241,0.046466
51.500595,0.185329,1.768892,0.231636
51.540752,-1.672881,2.720800,0.615510
51.570870,-2.311554,3.708404,0.900735
51.600988,-2.763889,2.374701,1.230490
51.641144,-1.961610,2.011962,1.437252
51.671262,-0.462958,2.845015,0.977178
51.701380,-0.836315,2.160492,0.911530
51.741537,-1.480522,0.893576,1.209394
51.771655,-2.019150,0.176739,0.819459
51.801772,-1.494171,0.045284,0.563354
51.831890,-0.726558,-0.444255,0.389369
51.872047,0.335877,-1.375827,-0.204236
51.902165,0.762070,-2.171509,-0.815191
51.932282,0.593998,-2.403768,-0.623635
51.972439,-0.193545,1.181514,0.057703
52.002557,-2.364860,1.012115,0.884489
52.032675,0.841351,-0.331411,0.298872
52.072832,1.144341,-0.088824,0.378872
52.102949,0.427803,-0.560064,0.387693
52.133067,-1.960822,-0.925451,-0.218063
52.173224,0.603077,-0.903424,-0.994670
52.203342,1.464223,-0.446437,-0.335535
52.233459,1.809323,-1.955464,-0.321007
52.273616,2.702474,-1.414750,-0.476180
52.303734,1.598863,-0.872270,-0.437706
52.333852,0.528308,-1.112646,-0.404396
52.374009,1.413749,-1.593098,-0.264453
52.404127,1.501204,-1.858254,-0.215191
52.434244,1.291555,-2.184814,-0.121841
52.474401,0.056775,-0.843542,-0.524030
52.504519,0.823598,0.737953,-0.465469
52.534637,1.228700,0.595344,-0.119236
52.574794,0.842043,1.454464,0.081359
52.604911,-0.296828,2.255413,0.422941
52.635029,-1.266787,3.104678,0.750777
52.675186,-1.554414,3.243804,0.857062
52.705304,-2.215136,1.828499,1.046631
52.735421,-1.540634,2.152975,1.336480
52.775578,-0.082496,2.549956,1.380748
52.805696,-1.169365,1.254774,1.495941
52.847074,-2.340436,0.120637,1.126620
52.877191,-1.833154,-0.228169,0.728640
52.917348,-0.556388,-0.534253,0.382702
52.947466,0.234192,-0.952865,-0.103464
52.977584,0.714830,-1.638862,-0.818268
53.017741,1.196725,-2.818815,-0.796048
53.047858,-0.617763,0.124471,0.198882
53.077976,-1.730070,1.894550,0.614301
53.108094,-0.900298,0.181232,0.665050
53.148251,0.720419,0.421401,0.349205
53.178368,1.616980,-0.506744,0.602839
53.208486,-0.668435,-0.457453,-0.106631
53.248643,0.430726,-0.687735,-1.416880
53.278761,2.329122,-0.352157,-1.320349
53.308879,2.311263,-1.421779,-0.571346
53.349035,2.872589,-1.036817,-0.429361
53.379153,2.259463,-0.838947,-0.627989
53.409271,0.720809,-0.958714,-0.429778
53.439413,0.369790,-1.187416,-0.344235
53.469531,1.341082,-1.366435,-0.417490
53.509688,1.598952,-1.366692,-0.275141
53.539806,1.262439,-1.692362,-0.271805
53.569923,0.061544,-0.264668,-0.466086
53.610080,0.568720,0.133539,-0.095739
53.640198,1.150266,-0.488988,-0.187077
53.670316,1.189990,0.533656,-0.264082
53.710473,-0.146758,1.151369,-0.045909
53.740590,-1.400419,2.207563,0.266234
53.770708,-1.985985,3.289418,0.512410
53.810865,-2.415085,2.152939,0.838252
53.840983,-2.277352,1.284356,1.175651
53.871101,-1.034704,2.898838,1.289296
53.911258,-0.615527,2.013913,0.680419
53.941375,-0.998877,0.997170,0.834982
53.971493,-1.444951,0.344471,0.915191
54.001611,-1.330855,0.017613,0.631939
54.041768,-0.616269,-0.501569,0.255499
54.071885,-0.051397,-1.111744,-0.133735
54.102003,0.234173,-2.066256,-0.499749
54.142160,-0.250166,-2.552042,-0.446965
54.172278,-0.838808,1.111503,0.029509
54.202396,-1.898880,1.120330,0.768491
54.242552,-0.028220,-0.390998,0.169849
54.272670,0.724442,0.435808,0.263554
54.302788,1.428562,-0.309414,0.425231
54.342945,-0.678579,-0.934269,-0.307961
54.373063,0.077986,-0.920431,-1.031548
54.403180,1.220502,-0.396837,-0.605369
54.443337,2.349587,-2.436580,-0.362801
54.473455,2.311086,-1.106731,-0.245065
54.503573,1.554708,-0.782685,-0.434027
54.543730,0.197972,-1.451610,-0.505969
54.573847,0.996248,-1.509786,-0.404233
54.603965,1.238489,-1.380711,-0.269035
54.644122,0.952806,-1.753644,-0.104416
54.674240,1.019867,-1.615059,-0.188097
54.704358,0.634049,-0.527986,-0.381452
54.744515,1.004088,0.161779,-0.230419
54.774632,1.320655,0.280862,-0.113463
54.804750,0.498563,1.526565,0.058832
54.834868,-0.626726,1.880198,0.407801
54.875025,-2.616882,3.135390,0.737260
54.905143,-3.380234,2.097018,0.762742
54.935260,-2.631037,1.592236,0.626831
54.975417,-0.421855,3.218804,0.684793
55.005535,-0.538390,2.727547,0.802949
55.035653,-1.146048,1.709347,1.043601
55.075810,-1.783208,0.483942,0.833413
55.105928,-1.210646,0.074108,0.553066
55.136045,-0.361483,-0.186759,0.311343
55.176202,0.042526,-1.115957,-0.261647
55.206320,0.105692,-2.008328,-0.703054
55.236438,0.064074,-2.618647,-0.621741
55.276595,-0.884695,1.031414,0.381554
55.306713,-1.261070,1.453375,0.556088
55.336830,0.352924,-0.396682,-0.026633
55.376987,0.871599,0.178682,-0.045456
55.407105,1.099612,-0.576597,0.153907
55.437223,-0.190172,-0.432354,0.009957
55.477380,0.002292,-1.133762,-0.515382
55.507497,0.750823,-0.761339,-0.205509
55.537615,1.546686,-1.687448,-0.326863
55.577772,1.484908,-2.213767,-0.260694
55.607890,1.239246,-1.377906,-0.177282
55.638008,0.998176,-0.794670,-0.079247
55.668125,1.236368,-1.256518,-0.185007
55.708282,0.895823,-1.509180,-0.438484
55.738400,0.750557,-1.248520,-0.091834
55.768518,1.351032,-1.355351,0.212779
55.808675,0.396476,-0.161777,-0.583987
55.838793,0.451514,0.181427,-0.416993
55.868910,1.064742,-0.147419,-0.120182
55.909067,0.227778,1.530065,0.086865
55.939185,-0.784797,1.869585,0.262310
55.969303,-2.374117,2.917927,0.351604
56.009460,-3.005506,1.861433,0.598767
56.039578,-2.062511,1.563250,0.842704
56.069695,0.072654,3.017761,0.871633
56.109852,-0.262105,2.326000,1.012258
56.139970,-1.007885,1.156889,1.361385
56.170088,-1.426829,0.588519,0.918294
56.210245,-1.188481,0.028963,0.373117
56.240363,-0.482974,-0.180866,0.213514
56.270480,0.187797,-0.806875,-0.028309
56.310637,0.366523,-1.705799,-0.521763
56.340755,0.581886,-2.092339,-0.579080
56.370873,-0.011481,-0.894172,-0.355279
56.411030,-0.815737,1.726107,0.429659
56.441148,-0.266660,0.551964,0.618849
56.471265,0.920819,0.305959,0.257072
56.511422,1.573810,-0.738802,0.167798
56.541540,-0.965456,-0.598624,-0.055974
56.571658,0.161583,-0.906558,-1.171876
56.601776,1.955459,-0.635497,-1.137358
56.641933,2.332251,-1.718134,-0.131801
56.672051,1.856566,-1.020653,-0.304461
56.702168,1.604283,-1.204552,-0.671802
56.742325,0.716800,-1.050677,-0.278234
56.772443,1.155129,-1.168454,-0.340826
56.802561,1.362977,-1.429591,-0.490771
56.847713,0.891198,-0.996274,-0.157178
56.877831,0.382535,-0.773651,-0.165115
56.907948,-0.025929,-0.221197,-0.498086
56.948105,0.254421,-0.445545,-0.206331
56.978223,0.926166,-0.548174,-0.213437
57.008341,1.110720,0.225722,-0.216845
57.048498,0.212480,1.386565,-0.034538
57.078616,-1.185689,2.244381,0.371742
57.108734,-2.536508,2.932540,0.857534
57.148891,-2.458264,2.208362,0.800207
57.179008,-1.210941,1.978795,1.031000
57.209126,-0.220164,2.932901,1.564987
57.249283,-0.984878,1.871950,1.227347
57.279401,-1.874798,0.780967,0.901689
57.309519,-1.688033,0.380209,0.855781
57.349676,-1.449590,-0.169592,0.674573
57.379793,-0.938477,-0.490622,0.384599
57.409911,-0.019326,-1.081847,0.042736
57.450068,0.932761,-1.804711,-0.657132
57.480186,1.087533,-2.274308,-0.775976
57.510304,-0.194034,-0.315657,-0.342732
57.550461,-1.504303,1.494239,0.562513
57.580579,0.146196,0.275556,0.462491
57.610696,0.914860,0.233826,-0.013730
57.650853,1.365890,-1.066633,0.160563
57.680971,-0.796509,-0.507095,0.196216
57.711089,0.117305,-1.248943,-1.042661
57.741207,0.865869,-0.924342,-0.972721
57.781364,2.155608,-1.546987,-0.103158
57.811482,2.268366,-0.834391,-0.286122
57.841599,1.468489,-0.663287,-0.801650
57.881756,0.541727,-1.188423,-0.487459
57.911874,1.216756,-1.377435,-0.463363
57.941992,1.691414,-1.101770,-0.403816
57.982149,1.409626,-0.771430,-0.271694
58.012267,1.283797,-1.035775,-0.220373
58.042385,0.650007,-0.215428,-0.437017
58.082542,0.778578,-0.206518,-0.275191
58.112659,0.732842,-0.093497,-0.221457
58.142777,0.644662,0.727814,-0.057550
58.182934,-0.205196,1.434463,0.313761
58.213052,-1.107409,2.452653,0.589405
58.243170,-2.062507,3.264082,0.756566
58.283327,-2.091339,1.636529,0.830170
58.313445,-1.529752,1.735323,1.367126
58.343562,-0.304439,2.466804,1.065172
58.383719,-1.583689,1.314622,0.937397
58.413837,-1.823678,0.666935,1.122010
58.443955,-1.697612,0.040652,0.849677
58.474073,-1.277883,-0.195627,0.724291
58.514230,-0.617940,-0.860385,0.472824
58.544348,-0.101354,-1.444644,0.013693
58.574465,0.469901,-1.603262,-0.391850
58.614623,0.674908,-1.575301,-0.428637
58.644740,-0.229619,0.561879,-0.111428
58.674858,-0.926167,0.832191,0.056346
58.715015,-0.292793,0.097751,0.228805
58.745133,0.618806,0.408704,0.215609
58.775251,1.966726,-0.535544,0.054733
58.815408,-0.474221,-0.606898,-0.289919
58.845526,0.537250,-1.054720,-1.529577
58.875643,2.117301,-0.714018,-0.992435
58.915801,1.880629,-0.858309,-0.291848
58.945918,1.870164,-0.506023,-0.439304
58.976036,1.337123,-1.265612,-0.687397
59.016193,0.306568,-1.296902,-0.584809
59.046311,1.068599,-1.286058,-0.557480
59.076429,1.675562,-1.341359,-0.573292
59.116586,0.908870,-1.213660,-0.644158
59.146704,0.698584,-1.454320,-0.404273
59.176821,0.290793,-0.635447,-0.506582
59.216979,0.930821,-0.061252,-0.400841
59.247096,0.957335,0.357237,-0.098224
59.277214,0.686954,1.361896,0.072441
59.317371,-0.394493,1.685541,0.501866
59.347489,-1.378443,3.088284,0.601920
59.377607,-2.147832,2.928411,0.832240
59.407725,-2.470904,1.681954,1.151028
59.447882,-1.156340,1.999981,1.412475
59.477999,-0.085246,2.487452,1.333223
59.508116,-1.342859,1.471183,1.375102
59.548274,-2.024175,0.417680,0.969414
59.578392,-1.732953,0.014164,0.844111
59.608510,-1.172093,-0.249947,0.590697
59.648666,-0.122170,-0.823758,0.104804
59.678784,0.277497,-1.597725,-0.265633
59.708903,0.676260,-2.286114,-0.607668
59.749059,-0.784352,0.225454,-0.024249
59.779177,-0.895096,1.756845,0.469989
59.809294,-0.196168,0.304549,0.496296
59.849451,-0.016121,0.124264,0.113697
59.879569,1.198783,-0.123840,0.483658
59.909687,0.083872,-1.235719,0.140247
59.949845,-0.225142,-1.024688,-1.043629
59.979963,1.146816,-0.815120,-0.976751
60.010081,1.843374,-1.831918,-0.379311
60.050237,2.440351,-1.220472,-0.406783
60.080356,1.938358,-1.100064,-0.863279
60.110474,0.270701,-1.242643,-0.608941
60.150630,0.503764,-1.519028,-0.573571
60.180747,1.073762,-1.301492,-0.526302
60.210865,1.301795,-1.136364,-0.319137
60.240983,1.462478,-1.107516,-0.179100
60.281140,0.376944,-0.051472,-0.237633
60.311258,0.543471,-0.310447,-0.254613
60.341376,1.218885,0.004377,-0.380251
60.381534,0.523963,1.496429,0.094415
60.411652,-0.282492,1.876220,0.371554
60.441770,-1.716989,3.259588,0.514097
60.481926,-2.839639,2.446176,0.725368
60.512044,-2.511987,1.606423,1.105574
60.542161,-0.788817,2.259998,1.366742
60.582318,-0.088395,2.418277,1.177219
60.612436,-1.231001,1.400701,1.291765
60.642554,-1.918950,0.605080,1.086380
60.682711,-1.634959,0.004506,0.783802
60.712829,-0.797784,-0.251029,0.467094
60.742947,0.002822,-0.696249,0.103130
60.783104,0.521978,-1.521645,-0.454236
60.813222,0.875394,-2.302339,-0.485553
60.843340,-0.810980,-0.458055,-0.101087
60.883497,-1.319582,1.254765,0.656775
60.913615,0.305289,0.184757,0.556820
60.943732,0.289212,0.148363,0.193549
60.983889,0.952251,-0.983703,0.177768
61.014007,-0.588330,-1.005833,-0.238445
61.044125,-0.383815,-1.140210,-1.100392
61.084282,1.028285,-1.411623,-0.454607
61.114400,1.741066,-2.211856,-0.355633
61.144518,2.060731,-1.229469,-0.375453
61.174636,1.744703,-1.077060,-0.674191
61.214793,0.591960,-1.051325,-0.587219
61.244911,1.233771,-1.523978,-0.477894
61.275029,1.882280,-1.608575,-0.350718
61.315186,1.516450,-1.243672,-0.230159
61.345303,1.104517,-0.939900,-0.385089
61.375421,0.443077,0.059797,-0.411525
61.415578,0.870463,-0.116571,-0.276032
61.445696,1.309350,0.075989,-0.463092
61.475816,0.917464,0.792465,0.057080
61.515973,-0.534359,2.158797,0.471400
61.546091,-1.470002,3.391785,0.686768
61.576209,-2.714630,3.561550,0.993747
61.616366,-3.108041,1.646983,1.570144
61.646484,-2.062558,2.707294,1.420467
61.676602,-0.809236,3.043709,0.932934
61.716759,-1.691596,1.350789,1.704913
61.746877,-3.205913,0.750826,1.480809
61.776994,-2.577113,0.417881,0.969979
61.817151,-1.141778,-0.057099,0.609622
61.847269,-0.501518,-0.923252,0.054287
61.877387,0.464937,-1.933844,-0.352872
61.917544,0.483230,-2.212406,-0.053187
61.947662,-0.201210,0.601274,0.181861
61.977780,-0.830253,0.483570,0.086624
62.007898,0.279834,-0.574818,0.214940
62.048055,0.863966,-0.497961,-0.140183
62.078173,1.587274,-1.013957,0.062779
62.108291,-0.150598,0.415729,0.261750
62.148448,0.387039,-0.906788,-0.649155
62.178566,0.975223,-0.622487,-0.738803
62.208683,1.595945,-0.807477,-0.390333
62.248841,2.471685,-2.194567,-0.793967
62.278958,2.179051,-0.459459,-0.448565
62.309076,1.137506,-0.994374,-0.377870
62.349233,0.594238,-1.722655,-0.570430
62.379351,1.497715,-1.253426,-0.404871
62.409469,1.349829,-0.937663,-0.317661
62.449626,1.016750,-1.131179,-0.468166
62.479743,0.611784,-0.337413,-0.330071
62.509861,0.644430,-0.048244,-0.333960
62.550018,0.920183,-0.139277,-0.334386
62.580136,1.110122,0.170254,-0.043938
62.610254,0.183908,1.411650,0.443289
62.650411,-1.246138,2.610512,0.797220
62.680529,-1.663054,2.951542,0.826127
62.710646,-1.536483,2.056276,1.352185
62.750804,-0.608783,2.440532,1.508277
62.780921,-0.235346,2.570488,1.308189
62.811039,-0.941504,1.815531,1.069639
62.841157,-1.659428,0.994247,1.041351
62.881314,-1.972376,0.142268,1.153991
62.911432,-1.720824,-0.255604,0.740088
62.941550,-0.935254,-0.838389,0.403666
62.981707,0.447668,-1.744007,-0.142165
63.011825,0.784087,-2.406462,-0.794037
63.041943,-0.200334,-2.047809,-0.741794
63.082100,-0.708129,1.763338,0.718202
63.112218,-0.380801,0.734744,0.689359
63.142336,-0.160342,-0.336477,-0.325004
63.182493,0.697133,-0.495468,-0.031901
63.212611,0.549571,-1.870524,-0.011480
63.242728,-0.252830,-0.341819,-0.186986
63.282886,-0.008784,-1.355549,-0.797473
63.313003,-0.057061,-0.962116,-0.328116
63.343121,1.452796,-1.919677,-0.200416
63.383278,2.020473,-1.532149,-0.275517
63.413396,1.180205,-0.508494,-0.376438
63.443514,0.443934,-0.938290,-0.426914
63.483674,1.184493,-1.642886,-0.358541
63.513792,1.323446,-1.548195,-0.282215
63.543910,1.430027,-1.294109,-0.278022
63.584067,0.846589,0.163595,-0.369687
63.604170,0.711365,0.232848,-0.227140
63.644327,0.869861,-0.105982,-0.145563
63.674445,1.199347,0.417834,0.018850
63.704563,0.191261,1.460057,0.562839
63.734681,-1.943879,2.143721,0.832564
63.774838,-2.547717,3.051609,0.536405
63.804956,-2.555021,2.041620,0.873343
63.835074,-1.687570,1.735787,1.245443
63.875231,-0.026643,3.238341,1.219547
63.905349,-0.760664,2.035645,1.027164
63.935467,-1.751485,0.692720,1.168983
63.975624,-2.070432,-0.198793,1.069087
64.005742,-1.775716,-0.423827,0.709269
64.035860,-0.949272,-0.631100,0.308741
64.076017,-0.016224,-1.469137,-0.349106
64.106135,0.078172,-2.698846,-0.531252
64.136252,0.300324,-2.941909,-0.347561
64.176410,-0.403431,1.573670,0.482908
64.206527,-0.055215,2.790997,0.879553
64.236645,-0.173625,-0.289454,0.213306
64.276802,0.830562,0.379517,0.194912
64.306920,0.745547,-0.881029,0.154164
64.337038,0.185888,-0.693384,-0.072083
64.377195,1.112243,0.303787,-0.682233
64.407313,1.649844,-0.273224,-0.374875
64.437431,2.421575,-2.096015,-0.355725
64.477585,2.192769,-0.417007,-0.036013
64.507703,1.950863,-0.104509,-0.134401
64.537821,0.968283,-0.665189,-0.254614
64.577978,0.736831,-1.132266,-0.264281
64.608096,0.570904,-0.656607,-0.189201
64.638214,1.363914,-0.273284,-0.362627
64.668332,1.910584,0.533903,-0.312328
64.708489,1.201146,0.394804,-0.330790
64.738607,0.210862,-0.139705,-0.094198
64.768725,-0.177031,0.957711,0.209840
64.808882,-0.827894,1.117293,0.140914
64.839000,-0.597314,2.079548,-0.012601
64.869118,-1.350321,1.866070,0.132289
64.909275,-0.719052,1.196506,0.541057
64.939393,-0.396585,1.787148,0.849583
64.969510,-0.901768,1.990068,0.992941
65.009668,-0.685933,1.842258,0.327168
65.039785,-0.170039,1.042899,0.443891
65.069903,-0.182526,0.800760,0.489811
65.110061,0.624139,0.253701,0.106353
65.140178,0.494308,-0.914973,-0.472839
65.170296,0.358147,-1.795087,-0.312931
65.210453,-0.255268,-0.766815,-0.318003
65.240571,0.113391,0.285186,-0.044133
65.270689,-1.117884,-0.257513,1.248866
65.310846,0.468081,1.785590,0.206749
65.340964,-0.831689,1.346632,0.273956
65.371082,-2.170157,-0.174704,1.300570
65.411239,-0.776132,0.447137,-0.018466
65.441357,-0.363496,0.162971,-0.098762
65.471475,-0.218887,0.288218,0.060692
65.501593,-0.545939,-0.405473,0.354647
65.541750,1.028769,-0.273262,-0.419021
65.571868,1.238903,0.109234,-0.776957
65.601986,0.794880,0.139177,-0.577722
65.642143,0.643421,-0.196305,-0.689387
65.672261,0.699396,-0.232142,-0.607994
65.702379,0.644959,0.008242,-0.679236
65.742536,0.500365,0.033037,-0.566794
65.772654,0.199770,0.043571,-0.495384
65.802772,-0.696486,0.214280,-0.295947
65.842929,-1.381912,0.552459,-0.104196
65.873047,-1.542010,0.669098,-0.033389
65.903165,-0.718193,0.370681,-0.444804
65.943322,0.003151,0.956878,-0.314994
65.973440,-0.720983,1.398757,0.172343
66.003557,-0.563576,0.751788,0.249086
66.043715,-0.232061,0.320114,0.248213
66.073833,-0.550666,0.407223,0.566539
66.103950,-0.710929,0.296023,0.611727
66.144108,-0.738579,-0.055993,0.479299
66.174225,-0.410023,-0.116826,0.126911
66.204343,-0.095044,-0.306683,-0.112031
66.244500,0.189392,-0.297533,-0.305408
66.274618,-0.352621,0.120576,-0.315917
66.304736,-1.163584,0.121515,0.394396
66.334854,-0.882869,-0.293911,0.821308
66.375011,-0.001400,1.106300,0.341660
66.405129,0.374190,1.002488,0.376650
66.435247,0.423579,0.599499,0.462345
66.475404,0.933498,-0.493970,-0.058667
66.505522,-0.593309,-0.440794,0.085647
66.535640,-0.648803,-0.437273,0.053150
66.575797,0.639917,-0.349503,-0.047978
66.605915,1.173958,-0.086670,-0.413954
66.636033,0.477466,-0.273820,-0.330047
66.676190,0.044679,-0.479674,-0.122598
66.706308,0.159324,-0.386114,-0.185982
66.736426,0.004734,-0.465280,-0.111551
66.776583,-0.351694,-0.497916,-0.075704
66.806701,-0.380929,-0.439564,-0.169394
66.836819,0.037216,-0.282260,-0.456588
66.876976,0.051809,0.109881,-0.591426
66.907094,0.155925,0.212686,-0.666027
66.937212,-0.213968,0.281682,-0.401446
66.977369,-0.269686,0.785653,-0.105418
67.011227,-0.181236,0.148266,-0.068365
67.041345,-0.571287,0.174685,0.319377
67.081502,-0.275570,0.065380,0.345424
67.111620,0.193411,-0.233985,0.185494
67.141738,0.034545,0.186701,0.511163
67.181895,-0.487763,0.431811,0.651877
67.212013,-0.402530,0.092178,0.579122
67.242131,-0.266858,-0.272583,0.583130
67.282288,-0.487954,-0.471866,0.444514
67.312406,-0.379897,-0.669610,0.228462
67.342524,-0.293459,-0.626082,-0.046978
67.382681,-0.291012,-0.161135,-0.360999
67.412799,-0.457660,-0.160522,0.339579
67.442917,0.643078,0.159009,0.333021
67.483074,2.521854,0.775930,-0.893924
67.513192,0.999084,-0.399114,-0.662821
67.543310,0.626144,-0.654324,-0.215733
67.583467,0.128534,-0.097176,-0.094376
67.603565,0.111666,-0.149039,-0.345032
67.643722,0.301728,-0.292879,-0.187346
67.673840,1.246741,-0.821447,-0.400040
67.703958,0.990500,-0.512276,-0.502885
67.744115,0.566230,0.253268,-0.392249
67.774233,0.772333,-0.246759,-0.295881
67.804351,0.956129,-0.914113,-0.513644
67.844508,-0.895444,-1.108108,-0.344902
67.874626,-1.914859,-0.869603,-0.064636
67.904744,-1.724820,-1.113128,0.292877
67.944901,-1.481292,-1.124338,-0.233519
67.975019,-2.004820,-0.638130,-0.133045
68.005137,-1.003739,-0.418800,-0.220362
68.045294,-0.406474,-0.018269,-0.389357
68.075412,-1.159014,0.926854,-0.629046
68.105530,-0.978553,0.281966,-0.505521
68.145687,-0.199549,0.532350,-0.238262
68.175805,-0.267003,1.444846,-0.289267
68.205923,-0.580929,2.099483,-0.232766
68.246080,0.095350,1.162560,-0.016052
68.276198,0.253393,0.030289,0.035568
68.306316,-0.560509,-0.364398,0.099794
68.336434,-0.794939,0.110191,0.137148
68.376591,-0.261819,0.282609,0.050945
68.406709,-0.373313,-0.291424,-0.003727
68.436827,-0.505560,-0.408396,-0.171297
68.476984,-0.062153,0.278902,0.074534
68.507102,-0.234144,0.175191,0.153319
68.537220,-0.609042,-0.118078,0.045961
68.577377,0.048670,-0.222905,0.058237
68.607495,0.197069,0.300076,0.135631
68.637613,-0.254956,0.845069,0.159763
